,acc_x,acc_y,acc_z,gyr_x,gyr_y,gyr_z,category,participant,set,labelBenchPress,labelDeadlift,labelOHP,labelRow,labelSquat,labelRest,pca_1,pca_2,pca_3,acc_r,gyr_r,acc_x_temp_mean_ws_4,acc_y_temp_mean_ws_4,acc_z_temp_mean_ws_4,gyr_x_temp_mean_ws_4,gyr_y_temp_mean_ws_4,gyr_z_temp_mean_ws_4,acc_r_temp_mean_ws_4,gyr_r_temp_mean_ws_4,acc_x_temp_std_ws_4,acc_y_temp_std_ws_4,acc_z_temp_std_ws_4,gyr_x_temp_std_ws_4,gyr_y_temp_std_ws_4,gyr_z_temp_std_ws_4,acc_r_temp_std_ws_4,gyr_r_temp_std_ws_4,acc_r_max_freq,acc_r_freq_weighted,acc_r_pse,acc_r_freq_0.0_Hz_ws_4,acc_r_freq_0.25_Hz_ws_4,acc_r_freq_0.5_Hz_ws_4,gyr_r_max_freq,gyr_r_freq_weighted,gyr_r_pse,gyr_r_freq_0.0_Hz_ws_4,gyr_r_freq_0.25_Hz_ws_4,gyr_r_freq_0.5_Hz_ws_4,cluster
2019-01-11 16:08:05.200,0.0134728448416,0.977141482752,-0.0709940965662,-1.89054648113,2.44144321091,0.938800174771,heavy,B,30,1,0,0,0,0,0,-0.313801808389,-0.0769966135596,0.0728078617627,0.979809755315,3.2274071199,,,,,,,,,,,,,,,,,,,,,,,,,,,,,2
2019-01-11 16:08:05.600,-0.00832453638631,0.96217420813,-0.0728238926646,4.57399170025,-1.90066023803,-1.27046433256,heavy,B,30,1,0,0,0,0,0,-0.310538358939,-0.082407938377,0.0630280443782,0.96496208425,5.11351044144,,,,,,,,,,,,,,,,,,,,,,,,,,,,,2
2019-01-11 16:08:06.000,-0.0224954158685,0.968995160704,-0.0952097977366,0.354874528119,-1.55275975493,-1.70277613501,heavy,B,30,1,0,0,0,0,0,-0.314600155192,-0.0975750536547,0.0616538750695,0.973921234386,2.33161861229,-0.00658694516046,0.968678171478,-0.0780208697694,1.50559873837,-0.804649184763,-0.528106816778,0.972046396142,3.83460041095,0.0180144485419,0.00869677143833,0.0131520837266,2.5410608203,2.42249054838,1.79376071723,0.00808956188718,1.07438751033,0.0,0.000748005085539,0.000302594246955,4.86023198071,0.0242168125904,-0.00480841465754,0.0,-0.00919044416797,0.0933615281542,19.1730020548,-2.38693659603,0.868953368384,2
2019-01-11 16:08:06.400,-0.0657271485662,0.852149768061,-0.170292148472,20.0452738282,8.39279822323,-24.1904381292,heavy,B,30,1,0,0,0,0,0,-0.28019397848,-0.152651849359,0.0544575163283,0.871480751994,32.518138965,-0.0286371933644,0.93613538985,-0.108331394648,7.14300786722,1.14324571569,-7.95046499181,0.943876919743,12.4298823314,0.0217559110888,0.0482080204022,0.037873455517,8.08244180606,5.11617629609,10.9920319117,0.0416382282341,12.7915110406,0.0,0.00668790334528,0.00260118177395,4.71938459872,-0.0222354850707,0.0749483963373,0.0,-0.209386329478,0.281107721393,62.1494116571,0.151606743099,-18.442536468,2
2019-01-11 16:08:06.800,-0.222927268691,0.915610851415,-0.216930601254,-10.0623243042,-5.47088216684,2.93714694717,heavy,B,30,1,0,0,0,0,0,-0.316232205079,-0.204032268881,-0.00553718303349,0.967005007286,11.8240329108,-0.0973318776187,0.897329407031,-0.164683607702,6.57448579787,1.98793378454,-10.8009485888,0.922895095154,17.2058697573,0.0886969356765,0.064879645962,0.0585838659075,11.6886367669,5.47443922904,11.1588307964,0.0555175700892,11.2185591664,0.0,0.00457790020377,0.0109396442296,4.61447547577,0.168296337543,-0.0407309894639,0.0,-0.215942785081,0.391463314654,86.0293487867,-32.1814592049,-5.0041686577,2
2019-01-11 16:08:07.200,-0.182305717262,1.17025751259,-0.0916280307131,-2.13799156391,-3.72918312123,0.635974808211,heavy,B,30,1,0,0,0,0,0,-0.396096160811,-0.11566514687,-0.00148506139232,1.18791149348,4.34537439534,-0.169337255092,0.968705485968,-0.169713818399,0.035697504298,-1.28629048243,-5.0581258649,1.00163397158,19.178492387,0.0645888091945,0.156562946107,0.0550115110805,16.5753044028,7.33929492335,14.9048180748,0.149856352086,11.1822146081,0.0,-0.0245576743084,0.016847630854,5.00816985791,-0.190772684701,-0.134610364269,0.0,0.109430742873,0.269826605802,95.8924619352,10.1262251608,23.222891284,2
2019-01-11 16:08:07.600,-0.216286563581,0.971046066393,-0.200254238737,18.3831926513,3.84171647231,-6.44634508548,heavy,B,30,1,0,0,0,0,0,-0.333816524201,-0.191598180651,-0.00145354702596,1.01479658098,19.8558787886,-0.204098068465,1.04820625447,-0.155496718964,1.48986687736,-2.14062362427,-0.72748877744,1.08132527507,17.4855918661,0.0221659222273,0.102829953509,0.0523060707262,18.2673546767,6.07191333029,9.42271846267,0.0890804028961,9.29158834032,0.0,-0.0166413829075,0.0143395507847,5.40662637537,-0.230730853446,-0.0550698160253,0.0,-0.102091036282,0.142867397224,87.4279593306,1.61470488857,-15.7686022769,2
2019-01-11 16:08:08.000,-0.169770380974,0.890838855494,-0.170696987867,-26.5741155791,-10.2336324958,25.8685238573,heavy,B,30,1,0,0,0,0,0,-0.302469287239,-0.168756095821,0.0055967012307,0.922796462055,38.4719557525,-0.195178211623,1.0071576009,-0.162307543151,0.549544669992,-2.0461407746,4.33851355087,1.04106458754,21.1594161577,0.0262565052329,0.1190652368,0.0542867136432,20.014456199,6.13527777607,15.7129336826,0.107468693396,12.4340057557,0.0,0.0234740281168,0.019339936696,5.2053229377,0.211004057707,0.156113207134,0.0,-0.306084978306,0.35238739887,105.797080789,-6.00387618053,-36.0312282254,2
2019-01-11 16:08:08.400,-0.0272967435431,0.872748913132,-0.0570198192757,-3.75386106179,-1.89510827496,2.70526697526,heavy,B,30,1,0,0,0,0,0,-0.281510993931,-0.0791496366635,0.0458577192028,0.875035449208,5.00013776335,-0.144026237991,0.902421994673,-0.149936269731,-8.03907768478,-4.10820458216,10.8501891649,0.930747178174,21.6465604512,0.0885378528194,0.0431182263262,0.0705567076484,17.2566076307,5.46813686408,12.7561230838,0.0616511806028,12.3988358077,0.0,0.0147679035801,0.00913949382632,4.65373589087,0.132930987585,0.0771925194376,0.0,0.0424042963526,0.370501317176,108.232802256,-26.5522256418,22.0755214853,2
2019-01-11 16:08:08.800,-0.0610665381036,0.993260259336,-0.0359294398104,3.20118626802,-1.3033751443,-2.23707377439,heavy,B,30,1,0,0,0,0,0,-0.32460867032,-0.0686120355845,0.0325163591587,0.995784107875,4.11714456406,-0.0745102840299,0.911994794315,-0.0810669254418,-8.66847034064,-4.1325504619,7.94554185862,0.921481709767,16.0997296676,0.0567151080054,0.0543226674774,0.0553583140322,13.6406425209,4.64681657743,13.2150023592,0.0514207051873,15.8897666541,0.0,-0.00126180830668,0.000840661984578,4.60740854884,0.0298450166069,-0.0265581358886,0.0,0.132085446014,0.619038535563,80.4986483379,39.7798763403,16.1506888721,2
2019-01-11 16:08:09.200,-0.046957201338,0.964354302368,-0.0363479883979,0.293767257307,-3.94728552224,4.71884118032,heavy,B,30,1,0,0,0,0,0,-0.313679037825,-0.0674590127615,0.0372243426591,0.966180819264,6.15912528535,-0.0468406562251,0.950713222135,-0.0410360707694,1.06820286702,-2.0903443676,0.668772362222,0.952883380814,5.1834084544,0.0148915258369,0.0480185486864,0.0100719573752,2.94975431982,1.91539135461,3.78357695252,0.0480895752614,0.740197205932,0.0,-0.0137403383621,0.00817050868119,4.76441690407,-0.138077425799,-0.056542403215,0.0,-0.0193369680846,0.0347807076837,25.917042272,1.05283562674,-1.51101235437,2
2019-01-11 16:08:09.600,-0.0454194939589,0.934750491272,-0.0576684579274,10.5446381073,5.08800190053,-9.84625926706,heavy,B,30,1,0,0,0,0,0,-0.303913955302,-0.0805986227765,0.0420612298214,0.937628424486,15.2979076252,-0.0507855224076,0.969713386007,-0.0409598141834,3.35213810399,-0.899484897058,-0.834762366849,0.971992991377,6.33446648829,0.0100206867591,0.0223228918647,0.0102599041302,4.21307968486,3.69423499804,5.6437949492,0.0221851419151,5.38715285776,0.0,0.00505045207322,0.00090998041638,4.85996495688,0.0195739431867,0.0399038480594,0.0,-0.151389035163,0.405750677942,31.6723324414,4.73598351003,-10.2792883206,2
2019-01-11 16:08:10.000,-0.122079984661,0.762774041509,-0.176987654501,21.344391147,5.35864014038,-12.6291680921,heavy,B,30,1,0,0,0,0,0,-0.25477330584,-0.16904815702,0.025817767257,0.792497565233,25.3730948898,-0.0650024153391,0.890161033066,-0.0835832125924,11.3968943008,2.86940212926,-7.01311986703,0.899326559609,15.8390249555,0.0342227828476,0.0950968605798,0.0584040506622,11.3403411663,4.94047239245,9.45808929507,0.0844865914783,12.7674123106,0.0,0.0133026647545,0.00619656187036,4.49663279804,0.0861091056944,0.0810265434439,0.0,-0.112960917358,0.28244083676,79.1951247773,-23.5501860369,-0.649563138432,2
2019-01-11 16:08:10.400,-0.204304194748,1.16928298751,-0.207165414638,-17.1991790818,-5.79860852816,8.60176383083,heavy,B,30,1,0,0,0,0,0,-0.400489977954,-0.186766919802,0.0129644528702,1.20494000593,20.0854664609,-0.124296376496,0.920482264087,-0.153889991149,7.46886794415,2.26253857549,-5.89541106284,0.944766400038,19.1234678424,0.0676584956577,0.156495139144,0.0708691150434,17.2023437265,5.7804132753,11.0340510836,0.162436264834,10.6547636622,0.0,-0.00956866590741,0.0165589862485,4.72383200019,0.144430194058,-0.162275132938,0.0,-0.0786640657998,0.182168346059,95.6173392122,7.94945236058,-17.5133529038,2
2019-01-11 16:08:10.800,-0.193671536806,1.09667613727,-0.182361777393,20.2202790468,-0.476920710153,-14.1348326267,heavy,B,30,1,0,0,0,0,0,-0.374059042693,-0.173331241303,0.0113848163108,1.128478193,24.6755067117,-0.178946636491,1.0388960634,-0.191950937702,3.86031959418,-1.28434177259,-3.61604282845,1.07237468021,15.8277410778,0.033180050856,0.195927450615,0.0229038254887,16.5809203492,4.24528533775,9.73577482991,0.19427779889,10.5651385628,0.0,-0.0447225099834,0.0656926339123,5.36187340105,-0.565367898743,-0.134324888702,0.0,0.083644830639,0.209889716258,79.1387053888,13.2643995935,10.5989849367,2
2019-01-11 16:08:11.200,-0.230405869785,0.908757503945,-0.261692638262,-13.6631015769,-6.35320520525,13.8414208078,heavy,B,30,1,0,0,0,0,0,-0.315645375186,-0.231664117443,0.000212314703485,0.973349938474,20.4604127783,-0.208515924207,1.07093990697,-0.212382093846,0.609713541712,-3.61509403656,-0.223974805682,1.11368319444,17.8588765677,0.0153659657217,0.146564391325,0.0389770697488,17.237746749,2.57185288456,11.4120341184,0.131321303105,7.22343740191,0.0,0.0116670780608,0.00929460586072,5.56841597222,0.185768478716,0.0423735500035,0.0,0.0471645723924,0.127062760773,89.2943828385,-6.76333767052,12.3298124035,2
2019-01-11 16:08:11.600,-0.0996306938077,0.873916842285,-0.0848186060188,-23.8996939142,-7.27823746657,16.8297402369,heavy,B,30,1,0,0,0,0,0,-0.288796766469,-0.107297409538,0.0178209900118,0.883657806113,30.1232180594,-0.185218513028,0.948300441924,-0.192559379115,-7.05046534352,-4.95205148653,6.93742263244,0.988034158331,27.5489168757,0.0512139641472,0.0862038417164,0.0687187604981,24.615135671,3.74828023491,16.7475404037,0.088517191647,10.2325816608,0.0,0.0266298388467,0.0198580182023,4.94017079165,0.138596345024,0.212513741653,0.0,-0.00362668256134,0.0581602351924,137.744584379,-12.4730367572,5.28951134712,2
2019-01-11 16:08:12.000,-0.0426578191351,0.869148584303,-0.0142437751889,8.39120560544,-1.79028846031,-1.16509353736,heavy,B,30,1,0,0,0,0,0,-0.280449040173,-0.0570153489434,0.0301016074296,0.87031134444,8.65880518517,-0.120038616074,0.878969985542,-0.114720650063,-12.8083918922,-5.68461401252,11.4971650902,0.901858756014,21.6040553956,0.0847622454867,0.0432960607621,0.108985879269,17.5013219291,2.873086395,10.7268171653,0.0666971119886,16.0277780693,0.0,0.010248760332,0.0103254613853,4.50929378007,0.165270267479,0.013457688672,0.0,-0.0338419096099,0.0972884724875,108.020276978,8.51720621103,-11.3763127542,2
2019-01-11 16:08:12.400,-0.0551048351094,1.02194045434,-0.030205509998,0.389012230877,1.05218204879,2.67305130677,heavy,B,30,1,0,0,0,0,0,-0.333724190032,-0.0632325966782,0.0351398503598,1.02387069882,2.89889994105,-0.0601043004502,0.913160916585,-0.0349552324371,-2.56325059307,-2.43724619835,4.70937249748,0.916436014266,9.96475099835,0.0234094955271,0.0869009579049,0.0284879069602,12.3908443318,3.27345055824,6.97228529359,0.0863956016624,11.4935504043,0.0,-0.00627137696247,0.00173953073214,4.58218007133,-0.0510003716101,-0.0309451487721,0.0,0.194682366315,0.871078352996,49.8237549918,22.7481285361,27.6480391165,2
2019-01-11 16:08:12.800,-0.0370217680829,0.939436327886,-0.053265777347,2.5741654701,-3.99571392253,0.00651385445707,heavy,B,30,1,0,0,0,0,0,-0.304781340539,-0.0765393657772,0.0444255688054,0.941673228089,4.75311477333,-0.0465139606579,0.956625753081,-0.0325762555541,3.66422453858,-1.02598424666,0.681124023979,0.958435512632,4.88263303956,0.010638364216,0.0573732565544,0.0148573699373,3.04935489379,1.94317399304,1.78007128529,0.0576568077909,2.26316290109,0.0,-0.0161545151435,0.00961504618104,4.79217756316,-0.145195652997,-0.075114767482,0.0,0.102436718276,0.301007847316,24.4131651978,5.00945580322,4.4309745608,2
2019-01-11 16:08:13.200,-0.0570018735259,0.98399043182,-0.0436156194104,2.35315488707,0.475610423882,-3.78179951515,heavy,B,30,1,0,0,0,0,0,-0.321314203397,-0.0726766320274,0.0355655890316,0.986604634976,4.47945875867,-0.0475082389377,0.978472686873,-0.0436531500848,1.24309881924,-1.56250858907,0.105833371259,0.980670560117,4.73355548641,0.00963510099553,0.0299235000398,0.00923121958874,3.19392986715,2.84370524163,2.58178327944,0.0299051606802,1.39380004148,0.0,0.00723015109172,0.00259972711755,4.90335280059,0.0710693317986,0.0369310149592,0.0,-0.0727765227982,0.120830172616,23.667777432,-3.61864206258,-0.967996800822,2
2019-01-11 16:08:13.600,-0.101511872683,0.775734035734,-0.143771843756,25.2000035879,8.6473162949,-21.5750046938,heavy,B,30,1,0,0,0,0,0,-0.256611350485,-0.145729726164,0.0288383977391,0.795448488306,34.2826061943,-0.0617195278897,0.911899704287,-0.0727591036628,9.31115141519,1.62996458952,-7.9669645128,0.918368390701,15.5633101943,0.0241410515296,0.086832845325,0.0410577060331,12.6142742983,6.57360132677,10.563679092,0.0799259956609,14.2192210463,0.0,0.00751361968844,0.00314988682801,4.5918419535,-0.0232322663383,0.0814943598104,0.0,-0.224670352095,0.268436915222,77.8165509717,-8.40599359701,-18.6194949555,2
2019-01-11 16:08:14.000,-0.260753718834,1.03449604201,-0.190752154645,-17.3019156459,-8.06294318534,4.87778304874,heavy,B,30,1,0,0,0,0,0,-0.359124838172,-0.19109713084,-0.0229374238915,1.08377163061,19.7017792419,-0.132991038477,0.901299825555,-0.130430457869,7.14444494576,1.91152360802,-9.54066753686,0.925369384626,19.5427283313,0.0875759877077,0.106749156507,0.0704865572241,16.7395662516,6.88721716213,10.4660531467,0.11156965777,11.9138159349,0.0,0.00329940806001,0.0223206673941,4.62684692313,0.243092426841,-0.0900043009665,0.0,-0.237795965446,0.299384446264,97.7136416564,-18.1925561512,-19.4656177803,2
2019-01-11 16:08:14.400,-0.228876247022,1.12441299445,-0.0897033818206,7.65659517336,-4.37300623662,-0.543792447714,heavy,B,30,1,0,0,0,0,0,-0.384318074469,-0.12402270128,-0.0246532859893,1.1509715962,8.8341577652,-0.210001077357,0.989443051711,-0.151014190532,1.1214652634,-2.46182319042,-3.84825546423,1.0249767596,18.8200720243,0.0701024370954,0.178307975101,0.0460251556542,17.6471430597,7.17109181959,12.2351644921,0.181614473517,9.87222048456,0.0,-0.0388040630188,0.048967290015,5.124883798,-0.441242396057,-0.132578282175,0.0,0.128793715995,0.348997424657,94.1003601216,8.91975827903,29.7365771459,2
2019-01-11 16:08:14.800,-0.207145977368,0.877849599805,-0.195926693426,20.6517667163,-3.07423154404,-7.89093191664,heavy,B,30,1,0,0,0,0,0,-0.301346300598,-0.190779531204,-0.00282626394872,0.922993307134,22.3206893846,-0.231959547842,1.03493698801,-0.144936731542,4.11987671619,-5.22716425592,-0.928325096675,1.07193606036,19.406661027,0.0363405490859,0.122343430932,0.0465268750758,19.6594326479,3.05834362375,7.8564160048,0.120531013709,6.57608828824,0.0,0.0018501887527,0.000208631398409,5.35968030179,0.0192931900365,0.0102957356014,0.0,-0.00623714599492,0.0204300328136,97.0333051352,3.91484159049,-3.1770460532,2
2019-01-11 16:08:15.200,-0.270091052434,0.984531342925,-0.25511403839,-18.2200275581,-3.87386582943,18.8383525824,heavy,B,30,1,0,0,0,0,0,-0.344527349125,-0.231857967373,-0.0157375087409,1.05229953644,26.4926361222,-0.23106109281,0.975302980545,-0.183542338751,7.26476887076,-3.54118427896,1.0627208531,1.02222716512,18.1731924748,0.0349894229466,0.0921767995844,0.0769342244808,17.1051573758,1.10364955829,11.4502866289,0.0855592124771,9.75398096897,0.0,0.0193770840921,0.0170998447932,5.1111358256,0.222619603908,0.0992414737799,0.0,-0.179916501322,0.261332934061,90.8659623742,1.89550610341,-25.2430928775,2
2019-01-11 16:08:15.600,-0.0873709412791,0.849472868177,-0.100799377505,-18.8965463097,-1.95375096313,17.7871635983,heavy,B,30,1,0,0,0,0,0,-0.279825993242,-0.115360298181,0.0259803938918,0.859882753435,26.0245997881,-0.2041859699,0.915469947156,-0.199341529931,-8.28609046741,-3.17211829668,11.5554134456,0.961732828838,23.5027168299,0.0730773349269,0.0527680838941,0.0639687573937,19.1786388351,1.04957407867,13.1137791979,0.0738034681193,10.7578988285,0.0,-0.00290055241922,0.0075594601682,4.80866414419,-0.139030138986,0.0421813347265,0.0,0.0269575593136,0.193116355226,117.51358415,-18.2630091364,15.3079405231,2
2019-01-11 16:08:16.000,-0.0261005633888,0.944797583508,-0.0315207860333,3.44477985676,-1.61486250877,-0.545414579922,heavy,B,30,1,0,0,0,0,0,-0.305159598697,-0.0617771779324,0.0449010479167,0.945683495237,3.84340555338,-0.120822397409,0.91328113708,-0.124319987572,-12.8253590701,-2.39350744383,13.3037632903,0.937099364288,19.9895484971,0.108299533665,0.0591766221273,0.0951810576409,12.1643093892,0.877076163897,10.2854239274,0.0822557299648,13.7500221106,0.0,0.0160580293965,0.0208521832583,4.68549682144,0.256542600465,0.031457829914,0.0,0.0446879173011,0.08636332872,99.9477424856,11.7435179027,4.51420115984,2
2019-01-11 16:08:16.400,-0.0422851708105,1.00116183344,-0.0107651775716,-1.18525163827,-0.364488080527,-0.0227469023601,heavy,B,30,1,0,0,0,0,0,-0.325158407661,-0.0503977074325,0.0355380251297,1.00211223995,1.24023805313,-0.044930910643,0.932721367549,-0.0427177965727,-4.02107640259,-1.31570543996,4.57214932751,0.935743808417,7.8843630988,0.0251846952175,0.0782121711019,0.0350037301536,8.75057293518,0.808666622597,7.86084758502,0.0756439879677,10.4795645642,0.0,-0.0126517739267,0.00897703201008,4.67871904208,-0.152126661736,-0.037525975719,0.0,0.193980934955,0.943102133502,39.421815494,24.9242602049,20.4263315184,2
2019-01-11 16:08:16.800,-0.041436187218,0.946667305471,-0.0352121058072,5.28157881187,-4.0515636769,-0.204626971244,heavy,B,30,1,0,0,0,0,0,-0.307148281494,-0.0665278703987,0.0389760725419,0.948227734911,6.65973837109,-0.0375899877593,0.97209819457,-0.0228792928433,2.34190065842,-1.71862017254,-0.541221236146,0.973162897154,3.40453672329,0.00721251758839,0.0327858553637,0.010800804785,2.59416271495,1.47968988473,0.65510988999,0.0327913249859,2.40282884567,0.0,-0.00555371119105,0.00109522474343,4.86581448577,-0.0308298227487,-0.0378686820423,0.0,0.00861121367156,0.0549057870473,17.0226836164,1.57020835424,-0.473036279,2
2019-01-11 16:08:17.200,-0.0563998748042,0.992234686418,-0.0372597477815,-0.753687824867,0.593943143811,-0.573022195458,heavy,B,30,1,0,0,0,0,0,-0.323936987535,-0.0685382351664,0.03459914422,0.99453451806,1.11766194886,-0.0458205192421,0.975507676904,-0.0285426504064,1.26913346898,-1.86715129468,0.172535767828,0.977129838422,3.66265434099,0.00910541185784,0.0239337536671,0.0156717344931,2.95722370294,1.98490879897,1.8748443082,0.0241810494094,2.41654360825,0.0,0.00430563282741,0.000956087318552,4.88564919211,0.0396931109745,0.0227628928429,0.0,-0.117251583431,0.343991068613,18.313271705,-6.3633624733,0.307321753649,2
2019-01-11 16:08:17.600,-0.0847410625935,0.800539291623,-0.115482743157,25.2612449304,5.94745409427,-19.9033647367,heavy,B,30,1,0,0,0,0,0,-0.26294849814,-0.1256199069,0.0313882452269,0.813253016649,32.7054526567,-0.0588982882672,0.927245251606,-0.0570255777749,8.51596081756,0.830502782738,-6.09616943625,0.931723285905,12.9552934807,0.0158371248311,0.0774605573457,0.0333070041468,10.9894177267,4.67728508736,9.92575808498,0.0731833929638,13.0128279594,0.0,0.00662093297024,0.00373071547762,4.65861642952,-0.0419480519315,0.0832091744466,0.0,-0.168847772605,0.251123020496,64.7764674034,1.64176882943,-17.3806566034,2
2019-01-11 16:08:18.000,-0.204835696725,0.965444432303,-0.184541210798,-9.22045215281,-3.82584138216,3.40970181716,heavy,B,30,1,0,0,0,0,0,-0.330833701002,-0.180398911303,-0.00195189963296,1.0040398762,10.5489272756,-0.109309193094,0.893988379704,-0.114246203771,8.67853601728,1.96842131487,-8.15012961854,0.911969368686,16.4079091658,0.0638311327542,0.0908520978611,0.0700018774089,13.6292451778,3.92003440715,9.48343790987,0.0888173154746,11.6856573547,0.0,0.00814649414981,0.0227051556874,4.55984684343,0.257512519272,-0.0510996458362,0.0,-0.260323729946,0.413723819125,82.0395458289,-30.8280156646,-7.39760237768,2
2019-01-11 16:08:18.400,-0.2434689515,1.1585919098,-0.0840592881431,-2.82326471835,-7.3098072855,-9.26913280101,heavy,B,30,1,0,0,0,0,0,-0.397061703202,-0.121926656802,-0.0312949611875,1.18687754538,12.1375833305,-0.183057100917,0.975261104354,-0.138777059983,1.97246667773,-2.1603231176,-6.56925653125,1.00407162231,18.7093622848,0.0681898351321,0.178372533067,0.0439572922712,17.7207450152,5.9471709253,10.0178391887,0.18187378754,8.7659221829,0.0,-0.0341279445892,0.0348296073649,5.02035811156,-0.333877482524,-0.143169031633,0.0,0.102189134591,0.286837710938,93.5468114238,17.4400974196,17.5501285102,2
2019-01-11 16:08:18.800,-0.259485123492,0.862125518332,-0.155736638647,17.0298207198,-0.262938008393,-6.06496043343,heavy,B,30,1,0,0,0,0,0,-0.2994602399,-0.176444752866,-0.0364246550847,0.91369953447,18.0794821608,-0.23802249442,1.02581077532,-0.130691047132,0.567361198828,-4.55702811676,-4.88246350355,1.06268021465,16.7129018638,0.0201057165709,0.128124338862,0.0403806663167,15.5146807475,3.01125347351,8.39597494387,0.119864054282,5.22231441646,0.0,-0.00760088527911,0.00551469722841,5.31340107324,-0.136112669092,-0.0104881770268,0.0,-0.0909100366504,0.0986801878661,83.564509319,-6.0361340789,-9.37380239165,2
2019-01-11 16:08:19.200,-0.256760140294,0.989142821202,-0.191858552681,-13.3363309126,-2.38580927005,21.8906516082,heavy,B,30,1,0,0,0,0,0,-0.343434632999,-0.192527280877,-0.0231977305392,1.03977833917,25.7439397901,-0.256113308811,0.980376344296,-0.145602618044,3.76529347432,-2.72928950793,0.365031308432,1.02568878791,18.0496997071,0.0143872575445,0.113979646,0.050625744299,12.8758977154,3.01808183986,15.6693932626,0.103098807257,6.35511611364,0.0,0.0226209697741,0.0266900159637,5.12844393953,0.305439825878,0.0975320678029,0.0,-0.108872313453,0.17313905325,90.2484985357,3.30501152826,-18.0853024699,2
2019-01-11 16:08:19.600,-0.089122729712,0.870217943872,-0.091350242603,-11.7459295001,-2.59835886855,15.9284260997,heavy,B,30,1,0,0,0,0,0,-0.286717303471,-0.109574534858,0.0246227470596,0.879526575842,19.960788728,-0.21273388434,0.917560620056,-0.156772464861,-4.80448225751,-1.83932047363,13.0080451756,0.957831661394,20.7883967687,0.0786116969234,0.0565733158949,0.0416439587716,14.2996632803,1.74226224543,11.5783811123,0.0632550176453,6.780279688,0.0,-0.00322144518775,0.00983249365599,4.78915830697,-0.160370282976,0.0500399656649,0.0,0.00711803984342,0.159752624029,103.941983843,-16.3112041478,9.53891762816,2
2019-01-11 16:08:20.000,-0.041232166417,0.948456968096,-0.0438954528055,4.77713995886,-0.10327621602,1.8519397364,heavy,B,30,1,0,0,0,0,0,-0.307949383497,-0.0714228584552,0.0410231866112,0.95036704628,5.12458905187,-0.121411099963,0.926295066315,-0.105172835529,-7.9440570866,-1.86257781925,13.9549910116,0.944765927076,17.5505655407,0.0947887218712,0.0578902572767,0.0648629494374,9.33530686347,1.70769495335,8.85822958548,0.074804596761,10.4953911673,0.0,0.0122978488076,0.0168154181858,4.72382963538,0.23100580711,0.00652522313668,0.0,0.0635615346887,0.146517540446,87.7528277036,13.4482192226,7.03521640078,2
2019-01-11 16:08:20.400,-0.0491477866739,0.991738083423,-0.0716197409572,0.0172552328434,-3.61322207483,1.07660713809,heavy,B,30,1,0,0,0,0,0,-0.323979845701,-0.0875403052893,0.0454552704342,0.995534689672,3.77024593825,-0.0547355660589,0.936569460792,-0.0636856426676,-0.930880758499,-1.74103382273,5.35097401949,0.940714284826,8.27564283919,0.0201456229837,0.0693679730938,0.0191654660442,6.56505176882,1.55427687889,6.70690962756,0.0683638611712,6.749356524,0.0,-0.00926557907057,0.00700530856902,4.70357142413,-0.137282688699,-0.0156865837603,0.0,0.150288318815,0.63739594405,41.378214196,15.9896711485,13.2231935736,2
2019-01-11 16:08:20.800,-0.0368298208474,0.963009755658,-0.0497337922253,2.1094542896,-2.21285882204,-0.0533071284554,heavy,B,30,1,0,0,0,0,0,-0.312673733674,-0.0736213323199,0.0448970757697,0.964996204804,3.05767611367,-0.0435677633952,0.974120432331,-0.0576396085481,2.05543849529,-2.23830754064,0.866817255141,0.976855683252,3.94992669988,0.00802220464782,0.0271257183116,0.0110213123779,2.24553867778,1.33027644265,0.928134864156,0.0278695401121,0.808633282514,0.0,-0.00597072061622,0.00117643746999,4.88427841626,-0.0173741000304,-0.0488474924011,0.0,0.0474079853859,0.0679988787532,19.7496334994,1.57126665852,1.36538922146,2
2019-01-11 16:08:21.200,-0.0506527647252,0.979900373785,-0.0637545616342,0.290073779951,-3.83952671052,0.34949190927,heavy,B,30,1,0,0,0,0,0,-0.31990286239,-0.0835895978925,0.0424686005835,0.983277727424,3.86629703376,-0.0440082927243,0.975005996977,-0.0601019852143,0.929415437467,-3.0949647503,0.375543552489,0.977887853844,3.6192259304,0.00698656130803,0.0155432638849,0.00821626455081,1.32497124629,0.653017458882,1.04715032442,0.0160992071714,0.366844672788,0.0,0.00371190424641,0.000517352042068,4.88943926922,0.0149826239519,0.0291344656202,0.0,0.00534056332182,0.00351636813111,18.096129652,0.360460614957,0.0170894046681,2
2019-01-11 16:08:21.600,-0.0464870304721,0.9616956409,-0.0548496899605,1.85570234125,-1.77676639312,0.517612807539,heavy,B,30,1,0,0,0,0,0,-0.313159026332,-0.078262388049,0.0415690986903,0.964379613128,2.62077336173,-0.0455930905036,0.970563673421,-0.0568482693509,1.25687802982,-2.81397401985,0.289048814681,0.973315894337,3.48191320995,0.00517980199968,0.0112934704712,0.00527852837027,1.32937525468,0.853140079509,1.02536257788,0.0115248738647,0.607439055758,0.0,-0.00171762170984,0.000125254390495,4.86657947169,-0.00830557824956,-0.0124936455849,0.0,-0.0140099540485,0.0309672746442,17.4095660498,-1.20499202218,0.144399281492,2
2019-01-11 16:08:22.000,-0.0343169372216,0.964018016003,-0.0764024298441,1.49065330798,-3.10992431477,-0.00191121142028,heavy,B,30,1,0,0,0,0,0,-0.313446354504,-0.0887740313743,0.0519362749038,0.967649584635,3.44872152847,-0.0450238194786,0.966978131396,-0.0634468030392,1.34240998157,-2.69104093427,0.31358253221,0.970144128051,3.5661604326,0.00622559180558,0.00745746821249,0.0080043794031,1.59957124448,1.11320530979,0.997049208501,0.00762168572144,0.568076495348,0.0,0.0025459317907,0.000283725731097,4.85072064025,0.0159352088392,0.0168987895929,0.0,0.00943329340368,0.0145660195685,17.830802163,0.799557485869,-0.0492159829815,2
2019-01-11 16:10:08.600,-0.00480069195803,0.954983840324,-0.0943850440275,2.33153444103,-2.86265691929,-4.79736839358,heavy,A,1,1,0,0,0,0,0,-0.308334425355,-0.0946437772186,0.0689421232797,0.959648747438,6.05356101737,-0.0289174007621,0.962140200546,-0.0746283633743,1.6525121268,-2.71951337752,-0.96420022122,0.965731341405,4.16619471859,0.0195624052715,0.00437469978919,0.0161396841551,1.71241094758,1.28878594627,2.23293930472,0.00390552535536,1.3050496633,0.0,-0.000105240030804,1.55948774795e-05,4.82865670703,-0.00472739202298,0.00134807132994,0.0,-0.10071508858,0.110788865062,20.8309735929,-0.89160587025,-2.97194752188,2
2019-01-11 16:10:09.000,-0.0661038114553,0.843891000013,-0.153673138022,15.5458746194,-4.73041809938,-12.222146233,heavy,A,1,1,0,0,0,0,0,-0.277092502642,-0.143489421059,0.0496691766171,0.860312249792,20.3330256385,-0.0290031628935,0.926510563295,-0.105642046177,5.85949933977,-3.23919351849,-5.8279831603,0.933850789224,10.2610660972,0.0238770682852,0.0519917230494,0.03115478292,7.05749180967,1.54979141203,6.36141501137,0.0466509922856,7.71719941405,0.0,0.00803458783878,0.0021691008724,4.66925394612,0.0162162592652,0.0682807292636,0.0,-0.195557375579,0.242811612166,51.3053304862,-7.2512219656,-9.7796394563,2
2019-01-11 16:10:09.400,-0.108466873241,1.01485759095,-0.169805721618,-3.65739481064,-15.8699506515,8.66059938186,heavy,A,1,1,0,0,0,0,0,-0.339154172843,-0.154362250931,0.0410908965677,1.03466660118,18.4455374586,-0.060383490566,0.917625323885,-0.142442791129,6.81168043022,-7.49442694842,-4.37889569234,0.931966455756,15.4835722639,0.0438172474233,0.0686773698361,0.0348284668519,7.54166042322,6.59527587773,8.82382529289,0.0679201606734,5.5437466928,0.0,-0.000364261167888,0.0101655044899,4.65983227878,0.145301878043,-0.0760961488368,0.0,-0.161636114071,0.212278217034,77.4178613195,-12.3382709146,-11.2367572018,2
2019-01-11 16:10:09.800,-0.140332767956,1.16627556984,-0.131526768489,-3.33152540138,4.89231036389,-9.0860700545,heavy,A,1,1,0,0,0,0,0,-0.392183234673,-0.131880020069,0.0262371191925,1.18202846049,10.8439121737,-0.106110257729,1.0110873957,-0.155651746947,1.65071119946,-7.19606653313,-1.91050879244,1.0291244407,15.5555799034,0.027946165637,0.154399103067,0.0176889306304,10.1867228519,8.09755799379,8.74210128743,0.15261813457,3.99898127693,0.0,-0.0293706981336,0.0267864459876,5.14562220348,-0.28912020773,-0.132910269529,0.0,0.056264710761,0.0767868500941,77.7778995171,3.69460857127,8.24900576654,2
2019-01-11 16:10:10.200,-0.158710523351,0.947146209391,-0.133874462893,3.1523294432,3.95289956116,-0.773692725367,heavy,A,1,1,0,0,0,0,0,-0.319462326011,-0.14366508505,0.00766254991374,0.96963773854,5.11480168651,-0.137266450284,1.06770512143,-0.142565581523,-1.75461325607,-1.13676922442,-2.02185112449,1.08638282108,12.5532319623,0.0223315668594,0.0953689359894,0.0167470254647,5.49810824648,10.1109111146,8.95864014648,0.0924197784165,5.12941542987,0.0,-0.0064478140186,0.00434766076153,5.43191410538,-0.121819777497,-0.0074707722461,0.0,0.0883470007739,0.173041658377,62.7661598117,2.07504442088,12.6557193197,2
2019-01-11 16:10:10.600,-0.0891766085551,0.916693512682,-0.125843126525,-8.2757036613,1.42371206232,21.928059963,heavy,A,1,1,0,0,0,0,0,-0.30327293441,-0.128208682244,0.0346906539845,0.929578375502,23.4809293016,-0.136232728264,1.00011436793,-0.130785398881,-1.71138773669,3.87923028604,2.94760885085,1.01813984115,14.3376517716,0.0283250474529,0.106871079179,0.00310568817531,5.28029492786,3.13138910731,15.256367829,0.106482947842,6.84219559882,0.0,0.0257495248719,0.0247621929524,5.09069920575,0.252910212619,0.156811335717,0.0,-0.0924622193672,0.20359233881,71.6882588581,5.8147349059,-14.5490839006,2
2019-01-11 16:10:11.000,0.0113773345182,0.91535821015,-0.114983174313,1.79279146032,-3.11783715073,4.22138998788,heavy,A,1,1,0,0,0,0,0,-0.294061397728,-0.105288274422,0.0786261849949,0.922621930698,5.54573197589,-0.0809144089805,0.92065728249,-0.125126745194,-2.50020358244,0.717019897425,11.4089504647,0.934693665937,13.4280334636,0.0704509069636,0.0166785575711,0.00841832994228,4.81042756861,2.53413771431,9.35429948234,0.0226750106186,7.92694711228,0.0,0.00615154769425,0.00193727430756,4.67346832969,0.05757450841,0.0297856730965,0.0,-0.112249796973,0.296018186657,67.140167318,-20.7518640764,-0.0312153662907,2
2019-01-11 16:10:11.400,-0.0130415509039,0.901095310943,-0.153406325826,13.8910911852,-3.06848328349,-15.3414202861,heavy,A,1,1,0,0,0,0,0,-0.292052887714,-0.13249489234,0.0764487461374,0.914153347233,20.9221695904,-0.0207443789817,0.915175308962,-0.127329349792,2.16393067994,-1.73450363587,3.77264336224,0.92515504803,15.8289068406,0.0435911458974,0.0162775570415,0.0152213283951,9.12058974978,2.64624956033,15.6951750418,0.0155942448486,7.12308711102,0.0,0.00234320566841,0.000786160097255,4.62577524015,-0.0213435813563,0.0324019000352,0.0,0.0448722497183,0.239592436864,79.1445342028,20.6209044677,-1.49084831506,2
2019-01-11 16:10:11.800,-0.103507923331,0.855648520527,-0.213052619648,6.71074547433,-12.2263341323,-0.045287531182,heavy,A,1,1,0,0,0,0,0,-0.285708639614,-0.184133458129,0.0456807108683,0.887828643158,13.9470212625,-0.0301628532002,0.887043265249,-0.159721741937,9.102688269,-5.66850097156,-6.23547559733,0.904201505551,14.5280283252,0.0529255029262,0.0478194427119,0.0426074439402,5.38637104159,3.79123554624,8.16920949703,0.038871360554,6.2155390868,0.0,0.00144654214012,0.00222046313226,4.52100752775,0.0656763549055,-0.0196252920373,0.0,-0.127682344472,0.255303464508,72.6401416259,-19.2808339703,-3.17490690296,2
2019-01-11 16:10:12.200,-0.113858118092,1.20105612135,-0.164765222777,-6.90731143142,-3.82828711804,-1.11505802509,heavy,A,1,1,0,0,0,0,0,-0.402598732381,-0.145879641596,0.046922502917,1.21763995349,7.9755932612,-0.0817561930302,0.964844772875,-0.183939478557,4.71860002536,-7.60840707068,-4.30656678796,0.98700839362,15.7503113428,0.0430914199052,0.156951746836,0.0243026041294,10.2486971044,4.93914720349,9.1695172976,0.153796715813,5.17639671766,0.0,-0.0175512458381,0.00793370843775,4.9350419681,-0.0305976610208,-0.151539954948,0.0,0.0562735645322,0.0813229191083,78.7515567139,5.22237901487,7.70726660432,2
2019-01-11 16:10:12.600,-0.178325958891,0.972096016388,-0.201575185739,9.76189140003,7.4897598506,-14.5412542552,heavy,A,1,1,0,0,0,0,0,-0.331091879518,-0.185744925774,0.0156720345793,1.00866415035,19.0483359284,-0.128950193383,1.04428058548,-0.187944898096,1.55192281454,-3.01135780762,-4.71298274394,1.07011849293,14.7603404901,0.0301626836366,0.137984897842,0.0220296012585,7.25786548312,10.1355112467,9.61845318097,0.130708299653,4.20671608645,0.0,-0.0261088891423,0.0355175014548,5.35059246464,-0.400251001625,-0.0554736228002,0.0,-0.030875913843,0.0757713886059,73.8017024507,4.79706414307,-6.83036221221,2
2019-01-11 16:10:13.000,-0.170279460175,0.929294201942,-0.211119378711,-16.5009827743,-0.36059433886,20.970536006,heavy,A,1,1,0,0,0,0,0,-0.316412316192,-0.191166735597,0.0169843783815,0.96806724993,26.6866228881,-0.159982147893,1.02774641679,-0.194521179783,-2.08586870649,2.29279456676,-1.21966429349,1.0603100001,14.8069474274,0.0346350287587,0.138575099809,0.0290072525846,10.0442455808,4.90897928039,14.8036601129,0.124666702127,9.16216975786,0.0,0.0212842122342,0.0244537676204,5.30155000051,0.301806064206,0.0915188192519,0.0,-0.163524483327,0.263068949821,74.034737137,3.09826111873,-20.1766465342,2
2019-01-11 16:10:13.400,-0.027865565437,0.884756335664,-0.107417692822,-7.32622894585,4.03408070088,11.5952817729,heavy,A,1,1,0,0,0,0,0,-0.28686691993,-0.108151789319,0.0569863952757,0.891688748368,14.2967827521,-0.134890672211,0.924086087826,-0.181329724045,-6.80719758648,3.23917233789,8.70870214023,0.954305958976,18.7387550227,0.0713932660527,0.037608591932,0.0494509212583,12.1502335567,3.04340827924,15.0552454167,0.0429627053262,10.510201519,0.0,0.0132605197198,0.0057098426154,4.77152979488,0.011490918421,0.12440456001,0.0,0.0606309313396,0.386541241907,93.6937751135,-21.3627606415,22.1367129056,2
2019-01-11 16:10:13.800,-0.00490140778344,0.945919950672,-0.0884002148914,8.08018714355,-8.44875164061,-1.24530311027,heavy,A,1,1,0,0,0,0,0,-0.305089357842,-0.0916762303194,0.0673986553111,0.950054301011,11.7567686205,-0.0596572492295,0.914374106007,-0.129856231044,-6.01445773518,-0.795861600634,11.3072189641,0.92873944262,18.0133033872,0.0731804315832,0.0369731492411,0.0534831626785,12.6865900661,5.26183604363,10.4247888629,0.0448741573819,9.8761940056,0.0,0.00328949268245,0.0073942070645,4.6436972131,0.134243719199,-0.0359242009236,0.0,0.047359506949,0.219703275466,90.0665169362,22.1969328139,-0.513634061654,2
2019-01-11 16:10:14.200,-0.0522878509136,0.882349066295,-0.159477070745,9.76114991758,-1.96535243188,-14.3071407427,heavy,A,1,1,0,0,0,0,0,-0.28915498276,-0.143149045316,0.0588210740463,0.898168597891,17.4309189123,-0.0218729511511,0.913295850071,-0.110849947188,4.53924776638,-3.0452597541,-1.72617921203,0.920881640534,12.4646102268,0.0213753127338,0.051556542266,0.0295757107698,6.81389642376,4.67164042633,9.95145841529,0.0505496493229,3.76156724158,0.0,-0.000601379222719,0.00867266900223,4.60440820267,-0.135064039114,0.0620818086991,0.0,0.0229394710037,0.0217603259182,62.3230511341,3.02194064388,1.55849066935,2
2019-01-11 16:10:14.600,-0.12411155151,0.855660441312,-0.207919098731,7.40921160152,-13.281372731,-0.571376510441,heavy,A,1,1,0,0,0,0,0,-0.287304636835,-0.184617354332,0.0352767898089,0.889263076745,15.2189930446,-0.0587634088947,0.887883609769,-0.154504115173,8.98488895392,-7.08297478877,-7.08174675052,0.906205855416,14.905915746,0.0475480777023,0.0848859559456,0.0534149327554,2.63903439769,4.16997793147,6.09621826643,0.0733876023163,3.17711557623,0.0,0.00324189470796,0.0106694781678,4.53102927708,0.159064228202,-0.0494431142123,0.0,-0.0251471074334,0.0780268706388,74.5295787298,-9.04084174509,1.16797393142,2
2019-01-11 16:10:15.000,-0.164252894612,1.23481976319,-0.13538345024,-8.60075388154,0.38513720963,-1.51183839109,heavy,A,1,1,0,0,0,0,0,-0.417560835633,-0.135914024424,0.0192493558127,1.25303134021,8.74110709932,-0.115735594629,0.968532673253,-0.175220141235,3.49576047341,-6.47919809627,-4.5912779869,0.992959460988,14.6216871088,0.0463630388064,0.193131567907,0.0306414397183,9.42591475991,5.8908452605,8.03794037421,0.188727512321,3.87510948664,0.0,-0.0199072707896,0.00983447802941,4.96479730494,-0.0974823318255,-0.139494825917,0.0,0.0348780587329,0.0331177009098,73.1084355439,2.86683226399,4.15624724473,2
2019-01-11 16:10:15.400,-0.186705060591,0.931576714588,-0.188937319486,8.42362108978,5.84520901577,-7.68670937109,heavy,A,1,1,0,0,0,0,0,-0.31777900767,-0.181110110197,0.00684040730425,0.968705974745,12.8144200672,-0.159983198771,1.04890784788,-0.169710382874,0.434619839517,-1.87280232736,-2.92682666762,1.07589611668,12.6801395623,0.0237919571298,0.152982406072,0.0297142634449,7.37939102407,10.1050650973,5.89817689614,0.1454886009,2.3878998485,0.0,-0.0270153266469,0.0358130287362,5.37948058341,-0.402271024446,-0.064311575395,0.0,0.0264312918628,0.044069079732,63.4006978116,5.320166245,1.02696746076,2
2019-01-11 16:10:15.800,-0.163796512375,0.953375666114,-0.199096890056,-7.12878390462,-0.815130212346,16.8997984544,heavy,A,1,1,0,0,0,0,0,-0.323664116212,-0.182415669662,0.0191285793596,0.987620387515,18.3599342325,-0.175892957677,1.02470808612,-0.176808962597,-0.388076195215,2.58149507792,0.442694761838,1.05627299504,12.2059606398,0.0127381237289,0.147530409579,0.0340131359319,7.63758559315,4.69601094889,10.7298698109,0.13684509262,4.24816054727,0.0,0.0263023627076,0.0358611696584,5.28136497518,0.376390123598,0.11550573934,0.0,-0.092160388944,0.140962463006,61.0298031992,1.98063139819,-10.6427652495,2
2019-01-11 16:10:16.200,-0.0273314881223,0.92683786945,-0.122952478926,-16.0837514651,8.43073550344,18.0838730937,heavy,A,1,1,0,0,0,0,0,-0.301533900428,-0.115536521284,0.0621355275351,0.935357021978,25.6279306303,-0.133791851532,0.935071395313,-0.177265990608,-5.38661258103,3.7121079672,10.8196215864,0.963783178013,18.850660474,0.0698733464275,0.0358196814307,0.0358643990027,12.3239376848,4.62287426933,12.3580120684,0.0309285964342,9.03388390352,0.0,0.0044819789053,0.00382702358409,4.81891589006,-0.0619997725106,0.0743067643422,0.0,-0.0453328834304,0.126292668582,94.25330237,-15.8265079843,0.73590696721,2
2019-01-11 16:10:16.600,0.0227857755672,0.934145984763,-0.0684254613975,7.75550356613,-8.1270142883,-3.40145392581,heavy,A,1,1,0,0,0,0,0,-0.298311104204,-0.0757248676549,0.0749317596666,0.936925800789,11.7373798446,-0.0502683907955,0.937939268886,-0.128475552556,-7.35642405809,1.27812712827,12.0632357029,0.951629825322,18.4869212679,0.0801025102321,0.0316237357765,0.0528435278857,10.5202560953,6.62109824598,10.505585142,0.040785343466,9.44799060079,0.0,0.00407097952792,0.00399154212343,4.75814912661,0.101006331802,-0.011029926321,0.0,-0.0148449210546,0.0397143999352,92.4346063395,4.8349514331,-5.15241902162,2
2019-01-11 16:10:17.000,0.00732199680096,0.986977848478,-0.0832878687327,2.25595294439,-3.02811181312,2.61471344209,heavy,A,1,1,0,0,0,0,0,-0.317913383978,-0.0850821692439,0.0734522602287,0.990512874273,4.59298500153,0.00643062742713,0.945102992511,-0.0861810929581,-0.284769500586,-2.09563390535,4.18763549087,0.949468195506,12.0445209837,0.0196987111771,0.0390594459412,0.0229429282404,9.89746369268,6.83157327187,8.71011465415,0.0379208373552,8.16513954074,0.0,-0.00187766581117,0.000593142584473,4.74734097753,-0.0351651489294,-0.000112784889824,0.0,0.152310941788,0.499127480952,60.2226049185,10.537782385,23.4207417314,2
2019-01-11 16:10:17.400,-0.0239485181126,0.900011172568,-0.14541946246,10.4781942016,-3.31190226606,-14.8230520976,heavy,A,1,1,0,0,0,0,0,-0.2924348035,-0.129637405204,0.0694719853056,0.911998060485,18.4522118954,0.00396264955147,0.951943709907,-0.0949139398377,6.18812153792,-4.71483247465,-3.98835494242,0.957359119445,9.91677092769,0.0175422119594,0.0360191337752,0.0335702581024,3.5459064548,3.11582672145,6.48757626989,0.0329840369405,6.08106719951,0.0,-0.00238096374385,0.0014233350646,4.78679559723,-0.0570643561251,0.00598105948456,0.0,-0.0244932022839,0.416084416293,49.5838546385,14.4068395359,-9.85531724373,2
2019-01-11 16:10:17.800,-0.102322167521,0.831197047221,-0.205732341548,9.57990582903,-9.64413386728,-4.69612537311,heavy,A,1,1,0,0,0,0,0,-0.277116108991,-0.180441929667,0.0436348589865,0.862371238872,14.3818464483,-0.0366939483421,0.901481246207,-0.145569439004,8.03951750596,-4.71225464524,-7.4234879834,0.91654244582,13.1236854266,0.0464962085907,0.070561199439,0.0499282975341,5.47096005468,3.32036221722,8.91099372818,0.0598141060742,9.08335393397,0.0,0.0128518005879,0.00774231982807,4.5827122291,0.124761195427,0.060164875706,0.0,-0.100729374808,0.393162377754,65.6184271329,-24.8076107662,3.48085970357,2
2019-01-11 16:10:18.200,-0.139290307631,1.12997801459,-0.170961949015,-7.04213704975,-7.69793843947,4.3622107783,heavy,A,1,1,0,0,0,0,0,-0.380789992725,-0.156188158303,0.0330925162033,1.15129496276,11.3083523698,-0.0909017691827,0.930761817024,-0.180678872825,5.45060854348,-7.73747065193,-4.91755055389,0.953733747545,16.7294785513,0.0465467833845,0.123403160676,0.0240749119187,9.11029726534,3.18443176256,11.8675379751,0.122459795155,5.13148370848,0.0,-0.0130730886374,0.00749042243544,4.76866873772,0.0352303377031,-0.139569555352,0.0,0.00748698355535,0.0354235029132,83.6473927563,5.97961934268,-1.67278598222,2
2019-01-11 16:10:18.600,-0.175099136048,1.01729795711,-0.154607318604,-3.10537422178,10.491419524,-15.6113432456,heavy,A,1,1,0,0,0,0,0,-0.345127216195,-0.155973666901,0.00825018887574,1.04377117413,19.0637685314,-0.13979824614,1.01970116943,-0.176339372819,-1.63018071289,-3.16756675911,-3.55226185093,1.04524543397,14.5184848343,0.0286183173986,0.133365239494,0.0252114210421,6.77131831866,9.4276336838,10.2675498469,0.128861895487,2.8822772054,0.0,-0.0271367098801,0.0366025908427,5.22622716986,-0.396706573364,-0.0604789143845,0.0,-0.0201563473527,0.066119081933,72.5924241714,5.14205922966,-5.48365519454,2
2019-01-11 16:10:19.000,-0.188429902994,0.887503790152,-0.164894885802,3.20148582435,-1.37921075558,4.09937725756,heavy,A,1,1,0,0,0,0,0,-0.302476958314,-0.168869042206,-0.00202661692707,0.922149190338,5.38113628257,-0.16882946296,1.01444390504,-0.161439124022,-2.49731889528,2.33434425691,-4.85443067202,1.04183283949,11.7383110254,0.0199108484549,0.132013168006,0.00833390149337,4.59755767548,7.22096208326,8.92939385069,0.125306859457,4.98428026607,0.0,0.0149334722347,0.0141114134298,5.20916419745,0.219800484907,0.0538548232564,0.0,0.0185478245336,0.11105133202,58.6915551272,-6.42444796553,5.34955132647,2
2019-01-11 16:10:19.400,-0.168286604525,0.999804222265,-0.133923599876,-9.81550582196,0.640103949133,16.7566711289,heavy,A,1,1,0,0,0,0,0,-0.338244420658,-0.143450290018,0.00487129816379,1.0226751169,19.4303863814,-0.181202662671,0.952293010065,-0.154209380615,-1.92320573406,2.53729503499,1.7895007815,0.981901867388,12.9613523388,0.00957938128463,0.0654254343579,0.0128941831689,5.00517246777,6.30736919747,12.8803068698,0.0609963875946,6.11676130942,0.0,0.0114117284014,0.00461434076398,4.90950933694,0.0781822279243,0.0764910389376,0.0,0.0489311652708,0.198453859372,64.8067616942,14.8418161415,0.414224339827,2
2019-01-11 16:10:19.800,-0.0257282370562,0.879520299921,-0.0945200956604,-4.53793587996,3.73510279644,17.1947693908,heavy,A,1,1,0,0,0,0,0,-0.284592026518,-0.100480758534,0.0549162616473,0.884958727082,18.1715147787,-0.135486401769,0.935525382796,-0.131628096513,-5.02685199654,0.836273567059,14.1019139262,0.95662626135,16.1231308243,0.0709077142128,0.0537746009939,0.028490444656,6.5004157707,4.13117310651,7.14766077039,0.0585396497495,8.15521796235,0.0,-0.00476490846776,0.00274127654558,4.78313130675,-0.0828634244744,-0.00332925305661,0.0,-0.143611023249,0.28013824787,80.6156541214,-22.8274746743,-4.02751168002,2
2019-01-11 16:10:20.200,0.0122187925299,0.946738971354,-0.0968882347188,7.64562970646,-7.13550577969,-4.8274671708,heavy,A,1,1,0,0,0,0,0,-0.304137432145,-0.093704649629,0.0770981521413,0.951762212319,11.5184866899,-0.0537543272219,0.931344230103,-0.10559475192,-2.64408245208,0.0342064428126,10.9154789117,0.941433350401,16.6691630312,0.080051579742,0.0463845358785,0.0180830043327,9.3357375625,5.18677237281,11.3905912951,0.0530862686202,7.3588691925,0.0,0.0124998899966,0.0098718536792,4.70716675201,0.160697434665,0.0424069815806,0.0,0.0096201081326,0.090650253816,83.3458151559,10.333301062,-3.43024268658,2
2019-01-11 16:10:20.600,-0.0140608203743,0.961566742931,-0.108054910269,2.41393829861,-3.38265558595,-2.22483916535,heavy,A,1,1,0,0,0,0,0,-0.311667478281,-0.103990395849,0.0680659057572,0.967721122749,4.71374227492,-0.0033875328413,0.931855141307,-0.0982635732953,2.75323363173,-3.21458792941,2.24877853023,0.937174426397,9.78781857475,0.0176960738376,0.0401792043172,0.00707911589921,4.78154612641,4.29858260839,8.81451391533,0.0404260250336,5.29136141552,0.0,-0.00900664526568,0.0043057695356,4.68587213198,-0.0969654271698,-0.0335738211162,0.0,0.12459763405,0.354072644373,48.9390928737,7.08181316541,13.8774273445,2
2019-01-11 16:10:21.000,-0.0696912950289,0.828755983329,-0.193190001803,18.1425447704,-7.25183117353,-19.2844577112,heavy,A,1,1,0,0,0,0,0,-0.27317306628,-0.167788118916,0.0562938784767,0.853824181728,27.4523458985,-0.0210933891825,0.923054964123,-0.127626589371,8.44655410121,-5.36586863764,-8.24010103109,0.933549159807,13.724560552,0.0308505706166,0.0582507651298,0.0399346704574,6.87169459671,2.17787107117,7.6384284809,0.0500207481565,9.21409545417,0.0,0.00523117722881,0.00132375350674,4.66774579904,-0.00755871663167,0.0530913479113,0.0,-0.0584814344863,0.109052153468,68.62280276,3.73212682463,-9.24731147987,2
2019-01-11 16:10:21.400,-0.169912965274,0.969323929412,-0.212283437179,-3.60261140935,-16.8482380082,7.76975134009,heavy,A,1,1,0,0,0,0,0,-0.329861309144,-0.191021013975,0.0204073805451,1.00673906927,18.9000256305,-0.0818209721137,0.8983729705,-0.176537653774,7.91581189909,-8.98052584987,-6.95053274214,0.922507380214,17.7718623402,0.0660269116457,0.0693281276897,0.0518269311002,8.54660615366,6.50864079667,10.3559957535,0.0651529044217,8.20849870369,0.0,0.00295303437737,0.0118398795036,4.61253690107,0.170249615171,-0.057215258834,0.0,-0.192222795975,0.288877636933,88.8593117008,-22.0681424433,-10.5771577198,2
2019-01-11 16:10:21.800,-0.195802177333,1.19727367224,-0.121106641692,-5.85288761912,7.00839598743,-9.30376441943,heavy,A,1,1,0,0,0,0,0,-0.40709143217,-0.133977689048,0.000258597896981,1.21920857836,13.0358712855,-0.14995765352,0.996038645657,-0.182717363842,1.79865535459,-7.8878378542,-4.48115263867,1.02621560004,18.6664827764,0.0520590443679,0.176653411757,0.0443650483419,11.9513214928,9.35189531065,11.4409342857,0.171592986348,5.70590743786,0.0,-0.0312601865891,0.0269397379797,5.13107800021,-0.274253147841,-0.156725397945,0.0,0.0717903689136,0.142649670819,93.3324138822,10.8204383659,11.1442194393,2
2019-01-11 16:10:22.200,-0.222945222088,0.876256813,-0.179381886357,6.1922896879,6.74796534781,-5.199174114,heavy,A,1,1,0,0,0,0,0,-0.301848635329,-0.18335916329,-0.0146306906318,0.921796309134,10.5314243757,-0.197233242771,1.04888749799,-0.161211095607,-2.30542176071,0.555667214446,-3.33575301173,1.08089846224,15.5840797408,0.0205189920135,0.13262048365,0.0358293741641,6.42002321573,12.4084272078,10.3332703082,0.123226619435,4.39562760504,0.0,-0.00836023866631,0.0101055469292,5.40449231118,-0.196265484694,0.010867002286,0.0,0.0516023279949,0.0786775639401,77.9203987042,-1.21487171143,9.50473643563,2
2019-01-11 16:10:22.600,-0.187638996493,0.954194815507,-0.208796483459,-1.00623493898,-6.2736454428,15.8828571077,heavy,A,1,1,0,0,0,0,0,-0.326114510873,-0.192274060846,0.0109131029316,0.994631645611,17.1066152642,-0.206726531082,0.986847545842,-0.170973176388,1.27201184279,3.46445464737,-1.00582355255,1.02455706439,14.7453975714,0.014688465153,0.13759785495,0.0402223651881,4.89143804234,8.19118422722,13.4856844233,0.126154635894,4.40364497277,0.0,0.0267946217542,0.0370442178799,5.12278532195,0.372049052828,0.114579732099,0.0,-0.0553890603209,0.153919889459,73.7269878569,6.84015233541,-11.1139680502,2
2019-01-11 16:10:23.000,-0.0873270885228,0.937975842404,-0.141934619859,-12.6409917617,3.17663370336,19.8387502178,heavy,A,1,1,0,0,0,0,0,-0.310746846042,-0.13649979511,0.0399240222882,0.952664756164,23.7373478849,-0.17143259199,0.924653629407,-0.184417211701,-2.31795863223,-0.256065623642,11.4695158991,0.960327433645,16.4949441192,0.0567874903452,0.0534520791109,0.0272942894644,8.45008907812,5.23203510305,9.98608018164,0.0449434892243,5.44347207686,0.0,-0.00337585626688,0.0064595265781,4.80163716822,-0.129117830231,0.032790018955,0.0,-0.0808863778273,0.0936888994155,82.474720596,-7.95694818348,-6.95185117516,2
2019-01-11 16:10:23.400,0.0247685239523,0.906733916568,-0.100747502005,2.7684035467,0.938965892097,9.50967459749,heavy,A,1,1,0,0,0,0,0,-0.28967865472,-0.0949360351131,0.0810854011127,0.912649951731,9.94885049109,-0.0839984216237,0.935868554793,-0.148187124057,-5.36543184891,-0.0724399110866,16.307070036,0.95479628078,18.1748711097,0.0854282518517,0.0397910325725,0.0476189685025,6.23000321617,3.92581307133,4.15118867505,0.0518203091296,5.19056263526,0.0,0.00533032174199,0.00352660871111,4.7739814039,0.0952660435507,0.00432236852705,0.0,0.0127942784619,0.100343419643,90.8743555487,-9.85529083977,7.18465122597,2
2019-01-11 16:10:23.800,0.0535790909237,0.976405480046,-0.122682917884,0.114120028302,-2.77914494836,-4.1486014477,heavy,A,1,1,0,0,0,0,0,-0.31141405591,-0.10066899351,0.102532281454,0.985540196435,4.99475364725,0.0033079523773,0.932585206633,-0.118169015145,-2.21927523499,0.69648452078,8.50331754018,0.941661494962,13.0475761329,0.0604352449867,0.0347820796385,0.0162287251347,7.33338966949,2.58943246245,11.4199654858,0.0364712551712,8.67445534874,0.0,0.00193871405921,0.000234255983406,4.70830747481,0.0182907366549,0.00921741635149,0.0,0.0937438746898,0.338983713187,65.2378806644,18.9652456842,7.75918369589,2
2019-01-11 16:10:24.200,0.0241509621519,0.971813271277,-0.0746532735056,-0.304156381046,-2.12749342144,-0.00143426528689,heavy,A,1,1,0,0,0,0,0,-0.311179833341,-0.0776450702988,0.0782792083536,0.974975596847,2.14912573376,0.0389860311522,0.957077432582,-0.102527971018,0.889245995369,-1.72726422139,0.688410628235,0.963588801112,5.58890288504,0.0144055596148,0.0300031164514,0.0197229190256,3.30797442339,1.79602037968,5.23873755196,0.0300643131472,2.80679487318,0.0,-0.00919438289928,0.00356745603127,4.81794400556,-0.0821856718648,-0.0451614515881,0.0,0.11284495473,0.307912411809,27.9445144252,4.26616726691,6.6337017482,2
2019-01-11 16:10:24.600,0.0103507488578,0.960400140107,-0.104597349733,1.31358116439,-0.530805982487,-0.161850263846,heavy,A,1,1,0,0,0,0,0,-0.309162135764,-0.097838145759,0.0781893359224,0.966134655569,1.42598947205,0.0280487931696,0.969660102846,-0.0975600512696,0.166792929353,-1.80235769725,-1.5111657554,0.975218761365,3.65915386359,0.0183557233986,0.00835967068082,0.0177015914388,2.41927070482,1.58738070126,2.10268831566,0.00934821823423,1.73410106479,0.0,0.00171612972168,0.000201474494208,4.87609380682,0.0179580081034,0.00784557957096,0.0,0.0599768766354,0.0954779671346,18.295769318,1.48765548636,1.85134397278,2
2019-01-11 16:12:05.200,0.0338180193778,0.961595878248,-0.00818758826078,9.00977439475,-0.836510099034,-1.74232248545,heavy,B,31,1,0,0,0,0,0,-0.305247306388,-0.0376086584912,0.0680643234772,0.962225196147,9.21474207091,0.020700943731,0.965939223731,-0.0687640913789,2.74268996159,-1.20337712596,0.129496007303,0.969212398388,4.80645440897,0.00947217153026,0.00668140438561,0.0371179877098,3.7278581881,1.15698955189,3.56067446939,0.00638618181669,3.20476077495,0.0,0.00154517390972,0.000130924326717,4.84606199194,-0.00122509336082,0.0156330895095,0.0,-0.190478275627,0.254296411173,24.0322720448,-0.0377742602995,-6.60554742771,2
2019-01-11 16:12:05.600,-0.0833757160724,0.792938146703,-0.102278929711,18.4025618282,4.65580636123,-34.2880514759,heavy,B,31,1,0,0,0,0,0,-0.259980313997,-0.117816630404,0.0285179310027,0.80384289136,39.1918523258,-0.00229320609744,0.913967079488,-0.0599172423572,9.88589421616,0.996099054682,-10.7663463618,0.917952649897,17.5549438751,0.0466644215749,0.0772448043942,0.0450819534728,9.21269205774,3.30508260654,17.2737547845,0.0744602085069,16.6510199979,0.0,0.0114308939633,0.00409561863862,4.58976324949,0.0255420062928,0.0949130078858,0.0,-0.333944873906,0.382432358956,87.7747193753,-17.2589180829,-23.0634679247,2
2019-01-11 16:12:06.000,-0.253502576543,1.00885258588,-0.107664636687,-13.0148146622,-11.4348896101,9.82526925999,heavy,B,31,1,0,0,0,0,0,-0.347823562689,-0.142276836322,-0.0391405379428,1.04577185387,19.9167772774,-0.0981035542743,0.894751892565,-0.0784804122316,7.24441295444,-1.34414681756,-13.2984611724,0.911692845854,23.3557689674,0.123886147607,0.0897964644171,0.0625847483399,13.5635924095,6.61382692213,17.5132877592,0.0938283884639,11.8947767008,0.0,0.00245963691244,0.017535611971,4.55846422927,0.206570171595,-0.0802392958626,0.0,-0.154225584668,0.212025629051,116.778844837,-20.4730734044,-14.879493837,2
2019-01-11 16:12:06.400,-0.215480984229,1.15900668547,0.000438854850986,4.83402051383,-1.21538609543,-6.29055687273,heavy,B,31,1,0,0,0,0,0,-0.39279153929,-0.0677990698993,-0.0368424874316,1.17886756853,8.02595934815,-0.197821953497,0.991939793839,-0.0770936887793,0.292506591896,-4.23847648806,-6.78884153225,1.01776016729,20.7691619539,0.0683286262286,0.177020664096,0.0647070699696,12.6736353122,6.53715789578,19.6216213082,0.177972806492,11.3727368433,0.0,-0.0380472467517,0.0414191937215,5.08880083645,-0.376516569087,-0.158276620737,0.0,0.128659141627,0.371893773317,103.845809769,14.9681255765,31.0886003534,2
2019-01-11 16:12:06.800,-0.26538006256,0.919040349749,-0.115565487464,11.4816726288,0.219986699788,-7.33063888536,heavy,B,31,1,0,0,0,0,0,-0.31832977608,-0.151966371404,-0.04542611502,0.963544043604,13.6240767383,-0.2408141343,1.05576072953,-0.0600089718787,1.72914354511,-3.7355137643,-1.99544255528,1.08631466966,17.3242016801,0.0202923222138,0.106570641174,0.051323021921,12.9142080667,6.51216880256,13.5756088974,0.09789143516,6.66929936058,0.0,-0.00529288035922,0.00257822233884,5.43157334832,-0.0898652901338,-0.0114917493559,0.0,0.0264319367823,0.0211582691395,86.6210084007,3.11936597112,3.36207302203,2
2019-01-11 16:12:07.200,-0.210626601615,0.93778304564,-0.0681782481519,-21.853686055,-8.56071315094,32.2278151961,heavy,B,31,1,0,0,0,0,0,-0.319319440927,-0.114150722147,-0.0329846676993,0.96356052198,39.8685524713,-0.237902072879,0.990154905033,-0.0715027436596,0.982111866276,-2.37082978332,3.39679636934,1.02282326632,21.3237468479,0.0289008643476,0.104289490489,0.0488317146448,15.0419994748,4.80826253835,21.1248911215,0.0950408844821,12.2441390522,0.0,0.0242919358509,0.0227310428505,5.1141163316,0.245388185793,0.144722569721,0.0,-0.230881085167,0.314916255068,106.61873424,1.27398266004,-34.5184514095,2
2019-01-11 16:12:07.600,-0.0404580562087,0.890337049216,0.0303265474128,-3.54833042474,-0.268258674996,3.69088900945,heavy,B,31,1,0,0,0,0,0,-0.286490011726,-0.0296611373695,0.0214867948896,0.89177161594,5.1269165392,-0.180223103552,0.918091891656,-0.0551352815407,-8.42427989378,-4.16085677323,14.372390271,0.943207313933,22.5909163223,0.101022112016,0.0185229583502,0.0665054272186,14.3081202864,3.91762087764,16.0903545967,0.0306223356749,14.4772657576,0.0,0.00548974123714,0.00130212350154,4.71603656967,-0.00299206721272,0.0538338913885,0.0,-0.0160621704058,0.426768452626,112.954581611,-39.0172840222,16.6001850622,2
2019-01-11 16:12:08.000,-0.0905084252104,0.811634396736,-0.0700455242888,25.4161626657,8.52921626764,-27.2258023101,heavy,B,31,1,0,0,0,0,0,-0.266095278815,-0.0995854594576,0.0194397981784,0.819663677658,38.2095952114,-0.0974806488443,0.881801892937,-0.021830452567,-0.458400848748,-0.0189755544912,3.07951087959,0.890335631691,29.269851566,0.0714298347231,0.0559279931988,0.0450473238729,22.812749121,7.59526634872,26.1133856908,0.0618832102196,14.1855768501,0.0,0.0139852421308,0.00754465464577,4.45167815846,0.1068525855,0.0762096402218,0.0,0.0257284620429,0.233781507924,146.34925783,35.2052564869,-8.70850422354,2
2019-01-11 16:12:08.400,-0.270443732338,1.02066580126,-0.0815811353841,-11.723050972,-5.30963941456,2.01651609473,heavy,B,31,1,0,0,0,0,0,-0.352595254751,-0.129352783068,-0.0517386845907,1.05903445264,13.0264550805,-0.12381771046,0.886031680827,-0.0467720353034,7.50534202488,2.45656167417,-11.3479196452,0.901082821232,20.6109330581,0.101667744821,0.0810329382466,0.0609930863177,15.6837661933,5.52078613292,13.574549013,0.0943305134741,12.9861444851,0.0,-0.00760968399882,0.00878340649869,4.50541410616,0.0898745307703,-0.113152543999,0.0,-0.193183902497,0.302639881167,103.05466529,-27.6987003235,-11.0113409737,2
2019-01-11 16:12:08.800,-0.285158826732,1.1634831243,-0.0135085871281,12.7796744077,-0.646844774828,-0.401021482482,heavy,B,31,1,0,0,0,0,0,-0.400400604967,-0.08761248006,-0.0646524973877,1.19799458217,12.8023163669,-0.227310052452,1.00529054067,-0.0591888658483,5.16251588068,-0.303655603376,-6.59511530418,1.03478632219,19.2001231509,0.0894786691939,0.162353630318,0.0441374142163,15.1299643832,6.22021596945,14.9392816709,0.173385827836,10.8527548599,0.0,-0.0385106625021,0.0396484097204,5.17393161096,-0.361452241961,-0.176354369376,0.0,0.120033559928,0.420939362224,96.0006157545,26.1364316077,21.3872485435,2
2019-01-11 16:12:09.200,-0.231634768947,0.901924323822,-0.177657703971,6.21891079878,1.60956126707,-1.04549541707,heavy,B,31,1,0,0,0,0,0,-0.311241366774,-0.183080252568,-0.0177347420192,0.94798966865,6.50834845892,-0.268190724703,1.05574433693,-0.0769704407862,4.3600152628,-1.27909763766,-0.0728596342964,1.09422924946,14.1619483726,0.0296381014232,0.109741113106,0.0677748132099,13.9997251422,4.8007152588,7.01624858615,0.106777406126,6.58633840779,0.0,-0.00315994181398,0.00360591670554,5.4711462473,-0.107932104026,0.0199451119691,0.0,0.0198600595937,0.180880460753,70.8097418631,-11.0770995889,8.23836635862,2
2019-01-11 16:12:09.600,-0.167831477376,0.934443495602,-0.0653607205687,-30.4660665211,-12.1162700664,35.8161383174,heavy,B,31,1,0,0,0,0,0,-0.314625882973,-0.105380000245,-0.0150309949951,0.951642829566,48.5569868666,-0.23066279862,0.982855907155,-0.103560336552,-1.9044332459,-2.78515376992,9.40711203279,1.01755443793,24.7918240501,0.042682533499,0.116081067863,0.0685975343608,22.3484854454,6.90256251551,19.179402385,0.114676489596,16.4773663716,0.0,0.0269074560181,0.0304316235324,5.08777218965,0.306052843079,0.145047517532,0.0,-0.17225189839,0.271493919446,123.959120251,4.80908213573,-34.7828513438,2
2019-01-11 16:12:10.000,0.00183339863639,0.805816824192,0.0268368757827,13.4537421931,5.04880152925,-10.882226868,heavy,B,31,1,0,0,0,0,0,-0.254231689397,-0.0275350104885,0.0384607330648,0.806265671726,18.0254386212,-0.137733283491,0.890243565525,-0.0710914345972,-8.97947318258,-3.76778090445,13.4006880849,0.911991517944,25.9501617885,0.100998083805,0.0513943652629,0.0987317645302,18.3317887594,6.97977413146,18.9573947079,0.060223444812,15.6651798587,0.0,0.0117553682358,0.00722782343723,4.55995758972,-0.0386568840694,0.128652260835,0.0,-0.182482940899,0.311802063882,129.750808942,-37.9778225762,-10.6267107477,2
2019-01-11 16:12:10.400,-0.134018629769,0.770952211523,-0.107885173754,11.2055187836,0.638435749909,-19.1847421201,heavy,B,31,1,0,0,0,0,0,-0.256973258825,-0.13029262252,0.0050195221064,0.789916145102,22.2266862494,-0.0787486686382,0.826442526144,-0.0337317968695,1.02823810652,-0.784166925924,-0.40894906804,0.834765096655,30.5119886081,0.0717035453923,0.103015769942,0.0588143215498,22.6500017316,8.26873379898,27.2057370039,0.105379591931,12.6538192009,0.0,0.0177762459968,0.0268769095379,4.17382548328,0.266832397083,0.0253619351939,0.0,0.0919148734004,0.20638153076,152.559943041,17.5488425858,27.5636530603,2
2019-01-11 16:12:10.800,-0.274348644371,1.24417674917,-0.00816494993578,-12.0306696321,-8.69440254194,5.69973175503,heavy,B,31,1,0,0,0,0,0,-0.42693832119,-0.0798008823117,-0.0585623514398,1.27409168754,15.9002072137,-0.13432308077,0.909421628438,-0.0443857583404,5.71532548274,-0.624432779332,-10.6536059493,0.925940244092,21.407015925,0.124225246752,0.225221589339,0.0549848797727,15.7723274393,7.76101015763,13.5666392266,0.237273994581,10.1695921574,0.0,-0.029729676535,0.0183824185521,4.62970122046,-0.0833936461379,-0.215792784777,0.0,-0.0600869447101,0.12280686414,107.035079625,6.78587064207,-15.2398139015,2
2019-01-11 16:12:11.200,-0.212026097177,1.0149998194,-0.0119177628661,15.3605323688,3.94003780478,-9.57033933232,heavy,B,31,1,0,0,0,0,0,-0.343894237176,-0.0792329137731,-0.0390728351946,1.03697720917,18.5219126305,-0.220963127831,1.05466252595,-0.0362750870988,1.60105299741,-2.80604747296,-5.06602145547,1.07999873356,14.4589210189,0.0533727483134,0.189224099059,0.0581835283599,12.0600359444,5.61063492847,9.57219789119,0.192640050589,7.2355010604,0.0,-0.045889071325,0.0695086339592,5.3999936678,-0.592326369905,-0.132880101241,0.0,0.0613726796759,0.206572291261,72.2946050946,16.3238859166,3.09552715968,2
2019-01-11 16:12:11.600,-0.262808513687,0.913124582762,-0.136807786522,1.75193596551,-3.35190890917,1.23925625035,heavy,B,31,1,0,0,0,0,0,-0.316710334077,-0.164081930419,-0.0406340937389,0.959990202535,3.97999108248,-0.24339732859,1.05441588237,-0.0437840851736,4.29521696645,-1.43697752664,-2.65589208578,1.08563281654,11.694655447,0.0258665146126,0.165840885795,0.0692034135037,11.0709385774,4.99362009863,6.67573059095,0.160945087893,7.45456497943,0.0,0.0242934779566,0.0324907835409,5.42816408272,0.369035202726,0.102111974755,0.0,0.114233065104,0.472399228537,58.473277235,-10.4946985953,21.0085780119,2
2019-01-11 16:12:12.000,-0.20847734567,0.975347967591,-0.0386812610729,-19.1445797837,-8.11247229501,29.800957917,heavy,B,31,1,0,0,0,0,0,-0.331143633407,-0.0953366761252,-0.0364262743696,0.998129601555,36.3376421167,-0.235583635617,0.953499966238,-0.0781145853855,-0.039029779958,-2.63235951139,6.07708299736,0.986885415862,19.7854299622,0.0289230869954,0.0517095737613,0.0514866402415,15.3517681745,5.64949625249,17.4177276444,0.0467698978678,11.6819948595,0.0,0.0109336685805,0.00375636961277,4.93442707931,0.029176534594,0.0960529486758,0.0,-0.0502765102405,0.20155417067,98.9271498109,12.9420083631,-16.1008016923,2
2019-01-11 16:12:12.400,-0.0220975111539,0.829875331015,0.0133046314079,10.2076842873,4.30706544106,-6.19964858399,heavy,B,31,1,0,0,0,0,0,-0.264739868777,-0.0386391432161,0.0315533185238,0.830276085554,12.6957974853,-0.172879338757,0.922358897426,-0.0505280794671,-6.07339743794,-3.59864661237,12.8354712135,0.94602747078,20.0638666799,0.10807984179,0.0599090971118,0.0705933991416,11.8157171993,5.0736979355,14.8524375171,0.0743415838443,12.2874822535,0.0,0.00486786910321,0.00174268792912,4.7301373539,-0.0229687866457,0.0578756160333,0.0,-0.193938348661,0.35221817464,100.319333399,-33.7891172881,-6.42057170532,2
2019-01-11 16:12:12.800,-0.145188355777,0.784610259909,-0.12568611832,14.8660792453,0.2683501777,-21.2364587006,heavy,B,31,1,0,0,0,0,0,-0.262925897606,-0.142192748936,0.00485316553047,0.80776848103,25.9241104397,-0.103083382937,0.851460219727,-0.0378339793731,3.93008552962,-0.010243037392,-0.775368754958,0.862505150642,27.3117336112,0.0767830362819,0.093411250537,0.0589839608342,18.4207334256,5.75108025014,25.3561901611,0.0975146652099,10.1478975544,0.0,0.0229076199894,0.0262953992331,4.31252575321,0.251895116138,0.0871660111429,0.0,0.0533791465908,0.0807300901395,136.558668056,11.1540489538,11.4107223101,2
2019-01-11 16:12:13.200,-0.299701727625,1.22583510876,-0.0458259642101,-14.4685726813,-7.99188617707,11.5930072557,heavy,B,31,1,0,0,0,0,0,-0.423763167341,-0.1066315128,-0.0628822055,1.26277189484,20.1892956126,-0.153099609989,0.917333299098,-0.0666810144338,5.47531643092,-0.907923713452,-8.34173548082,0.9380785426,21.4877849474,0.1256654089,0.196618119036,0.0571491697857,16.3458223775,6.58690705568,16.0335276988,0.210855648725,10.7692197812,0.0,-0.0282959451735,0.0176927112408,4.690392713,-0.0386396291723,-0.230866513442,0.0,-0.130292118474,0.175264160524,107.438924737,0.578576411334,-22.5585450665,2
2019-01-11 16:12:13.600,-0.226832465658,1.00670820251,-0.042457901531,18.5141893608,3.94887174276,-14.1981370634,heavy,B,31,1,0,0,0,0,0,-0.34301456463,-0.0998945989974,-0.0391608124105,1.03281994843,23.6633871582,-0.239077614734,1.04780672626,-0.0667320229793,2.68787131112,-2.52072171739,-4.5453731741,1.07868080558,16.7754061513,0.0584906624695,0.185022986549,0.053411040006,14.2256454727,5.12381685941,13.0972565445,0.188294469844,9.54943386837,0.0,-0.0405971983683,0.0664469718262,5.39340402792,-0.588716063762,-0.0885647476212,0.0,0.0651937506733,0.200966952715,83.8770307565,17.9061050568,4.96565566413,2
2019-01-11 16:12:14.000,-0.271432751975,0.914649932285,-0.150406694308,-4.63185118641,-2.5775342431,11.0226352699,heavy,B,31,1,0,0,0,0,0,-0.318337287222,-0.173321809089,-0.0420180931112,0.965858380492,12.2309532123,-0.260762946651,1.04481929167,-0.0719111535611,3.00214628105,-1.10930756767,-0.231054213858,1.08163508127,15.0312331669,0.0280427118042,0.174151229249,0.0610841222556,13.2631192194,4.68966825531,11.6338732868,0.168665656802,7.98115930199,0.0,0.0219692915778,0.0337852756833,5.40817540633,0.390634463539,0.0622075704057,0.0,0.0938129112795,0.29330275717,75.1561658347,-7.25109118789,20.146247302,2
2019-01-11 16:12:14.400,-0.12739891158,0.982431655952,-0.0785632820225,-14.0200545342,-4.23919597082,29.902672357,heavy,B,31,1,0,0,0,0,0,-0.327681073565,-0.10484123816,0.00975001053362,0.993767895723,33.2971849518,-0.220899982812,0.955838102028,-0.102720474342,-0.366514471702,-1.12324363022,9.06346893582,0.98875311329,23.4172144007,0.0548401004061,0.0717428335015,0.0423366190769,15.3577228018,4.09778348449,20.3770944683,0.0642217308742,9.31923511222,0.0,0.0119738266344,0.00609507832903,4.94376556645,-0.0217254779847,0.131892565841,0.0,-0.00435207028688,0.0108178378427,117.086072004,3.27984465868,-2.66441276501,2
2019-01-11 16:12:14.800,0.0198782229852,0.867323888365,0.00992685254654,-6.05884806261,-1.00631155853,5.07108998262,heavy,B,31,1,0,0,0,0,0,-0.274161764067,-0.0322119160863,0.0519438249883,0.867608444795,7.96481364568,-0.126935997648,0.931350755555,-0.0757720099308,-10.0318609156,-3.06335696622,18.7041460979,0.950953020197,21.5896756996,0.128658599082,0.0699643077049,0.0644849833126,4.55209199223,1.66510630397,10.6458386427,0.0824758318755,11.3586847005,0.0,0.00108049383456,0.00142537678574,4.75476510098,0.0538157724712,-0.0165523717333,0.0,-0.0770848843279,0.158407816471,107.948378498,-20.7230197609,-2.67378645738,2
2019-01-11 16:12:15.200,-0.0203461202274,1.01210106331,0.0419948381795,8.04125231509,-1.49168053938,-6.52634495641,heavy,B,31,1,0,0,0,0,0,-0.32569364941,-0.0156706261513,0.0350379445092,1.01317624005,10.4632704312,-0.0291478686686,0.939101347908,-0.00346949206647,-4.0452195486,-1.91380865739,8.44685453087,0.942061500587,16.1804563566,0.0573303763224,0.067222340166,0.0535998100325,9.20758156996,1.44885640643,16.0648381918,0.0692454884657,11.485581387,0.0,0.0086231472363,0.00403812818963,4.71030750294,0.091602556594,0.0376634312467,0.0,0.10872910964,0.46831978481,80.9022817828,31.7870441106,11.0047773773,2
2019-01-11 16:12:15.600,-0.0175520457887,0.972407570793,0.00787369264487,-6.84579738591,-4.69557643415,6.953327175,heavy,B,31,1,0,0,0,0,0,-0.312963184972,-0.0363043284853,0.0406688365143,0.972597837281,10.8287644125,-0.00768974288796,0.96033130752,0.0237894681752,-0.06734772533,-2.30424786544,0.31960729809,0.960926741065,8.10498990022,0.017887236606,0.0549577615156,0.0187422623466,6.29837916065,1.82325641546,6.25027051705,0.0551628769874,2.5916119306,0.0,-0.0173417789731,0.0104421239921,4.80463370532,-0.149490950974,-0.0838047897014,0.0,-0.0108707660759,0.014699736667,40.5249495011,1.04602947962,-1.39647011598,2
2019-01-11 16:12:16.000,-0.0351387327688,0.874881962246,0.00720611898853,16.7721428664,3.63087176171,-19.4970214583,heavy,B,31,1,0,0,0,0,0,-0.281155262295,-0.0430195733734,0.0299077166393,0.875616986219,25.973483629,-0.0230580802917,0.961772214652,0.0190880723992,3.81139567028,-1.57547149611,-3.96917282337,0.962348150125,11.0692698069,0.00691390101115,0.0517657540952,0.0147693116906,9.00890043265,3.22833766085,10.0598721305,0.0517730952641,8.97644340113,0.0,0.011852866343,0.00446891828932,4.81174075063,0.0199841840658,0.107086040737,0.0,-0.053423603741,0.243422788943,55.3463490344,8.47346209383,-9.988460533,2
2019-01-11 16:12:16.400,-0.156374865194,0.818351703429,-0.0952585116378,2.21816393758,0.817902559521,-11.0601769497,heavy,B,31,1,0,0,0,0,0,-0.2746898382,-0.124957360346,-0.00619703928478,0.838586186989,11.3100278518,-0.0613466874684,0.878869601918,-0.0227904494126,6.491485342,0.687181372794,-10.0350815561,0.884442423468,16.7349881463,0.0581218433008,0.0910198500212,0.0518691243397,11.9443051558,3.97691108442,12.4279030896,0.0861592396044,11.9165143746,0.0,0.0130203070679,0.0148274715297,4.42221211734,0.19898472474,0.0214038097915,0.0,0.00789587797459,0.515197616162,83.6749407315,-31.7075189365,16.9419596019,2
2019-01-11 16:12:16.800,-0.280650242215,1.21953752624,0.0451428005949,-8.94007232734,-9.64075354245,0.567258744831,heavy,B,31,1,0,0,0,0,0,-0.417811811574,-0.0505526140484,-0.0741573247529,1.25222769847,13.1601977405,-0.158179817503,0.945620785345,-0.0284667427549,2.98234622207,-1.17286436739,-10.4231290065,0.963223687865,20.0104634046,0.104616944881,0.187486194929,0.0553154516499,16.0836912645,6.3653476135,11.4504001032,0.198602835549,8.85610823097,0.0,-0.0210123684945,0.0104672905767,4.81611843932,-0.0516495297648,-0.16736722435,0.0,0.0283824090762,0.128221312742,100.052317023,16.7637491657,-1.85619860464,2
2019-01-11 16:12:17.200,-0.233630797353,0.9116290312,-0.0373173886758,25.0627099893,-3.90355111811,-6.81530306479,heavy,B,31,1,0,0,0,0,0,-0.311195568553,-0.101434380071,-0.0479040117096,0.941829829373,26.2645292972,-0.235073707101,1.02686492603,-0.015465767109,3.36335356225,-5.43048360451,-4.4813634498,1.05536373133,17.2910286417,0.0476639528133,0.162622118796,0.0621267277937,16.8825427776,4.15029230862,5.38331105363,0.166657724151,5.79713486025,0.0,-0.03127045455,0.0504173674516,5.27681865663,-0.491640973277,-0.0503028875648,0.0,-0.102242202997,0.123300835714,86.4551432087,-0.662653709932,-14.2898482648,2
2019-01-11 16:12:17.600,-0.257753442969,0.903955580411,-0.151571435732,-1.91518196422,5.22312827446,2.734300818,heavy,B,31,1,0,0,0,0,0,-0.31355947956,-0.17192807375,-0.0357750163775,0.952127317562,6.19882181474,-0.253897794562,0.996075802255,-0.0439603977902,8.49119778891,-3.01976902454,-2.21940708553,1.03304011494,15.5124819481,0.0199350582093,0.171870850834,0.0938180528243,13.7026837607,6.43437427597,4.3340115821,0.16726771124,7.40496566864,0.0,0.0281445254825,0.0477944469633,5.1652005747,0.452760135552,0.0952088232674,0.0,-0.000801735853435,0.136119260471,77.5624097406,-11.5315418851,5.65083136596,2
2019-01-11 16:12:18.000,-0.231311700439,1.02932042337,-0.126206742145,-11.5765595762,-1.75694699459,14.4327694886,heavy,B,31,1,0,0,0,0,0,-0.353338843542,-0.148551015911,-0.0239323736199,1.0625129545,18.5851669208,-0.244433314635,0.936987549597,-0.115886193083,3.36538562968,1.01522673471,3.03268831594,0.976321566937,15.0727610548,0.015620937392,0.0923385156633,0.0451462900082,15.4795870629,3.79762629338,7.8998502481,0.0905952759034,7.70741123858,0.0,-0.00367602228545,0.00393846144801,4.88160783469,-0.101947015025,0.015717671114,0.0,0.0808208057347,0.312797405849,75.363805274,22.5497100807,5.42971052535,2
2019-01-11 16:12:18.400,-0.0854870227165,0.845734090876,-0.0406425623954,-17.1441413197,-6.70767728975,21.3993447779,heavy,B,31,1,0,0,0,0,0,-0.276962744839,-0.0801185297304,0.0133811963664,0.851014689298,28.2284691958,-0.200403461533,0.946563567942,-0.111833686358,-11.2293839707,-1.20345227049,13.6024997809,0.976347081961,18.7586245234,0.0758617527305,0.0804197567208,0.0436626459442,6.47331336667,5.59223434013,9.28230676999,0.0915170753189,10.497609244,0.0,-0.00219314597698,0.00258072531879,4.8817354098,-0.0788045632813,0.0182551522855,0.0,-0.166883186971,0.25316948293,93.7931226169,-21.1492317075,-10.2502750641,2
2019-01-11 16:12:18.800,-0.0164053015776,0.950478968768,0.0677948266196,9.95033132448,-0.71421583762,-2.78194863072,heavy,B,31,1,0,0,0,0,0,-0.303853807293,-0.00196292348916,0.0280709519282,0.953034911484,10.3565648703,-0.105481494622,0.923839944487,-0.0333301126768,-8.19233562345,-3.82030275557,12.8954219823,0.936256395373,19.3964144209,0.090701010916,0.0726081614053,0.0842559891964,11.3391790817,2.73130893776,10.7833919369,0.0838122860274,9.59394012953,0.0,0.0186899048418,0.0220389019053,4.68128197687,0.257714706157,0.0579266916711,0.0,-0.0116722368392,0.00534236995167,96.9820721043,0.377062629163,-2.40518137931,2
2019-01-11 16:12:19.200,-0.0272860585448,0.990676109178,-0.0168708871655,6.71818708798,-2.93950561101,7.52161546152,heavy,B,31,1,0,0,0,0,0,-0.320444975003,-0.0519926691681,0.043500938314,0.991195394017,10.5047337014,-0.0371870524107,0.931168840708,0.0167799891962,1.69663241915,-2.95647084337,6.67922446705,0.933308000797,14.5445278737,0.0275584678914,0.0709623499907,0.0442733793805,12.6476214551,2.3954849046,9.46696194282,0.0696440554865,7.8220254478,0.0,-0.0143159414818,0.00984817723934,4.66654000398,-0.156023965334,-0.0497093134137,0.0,0.125241248675,0.39435999576,72.7226393687,14.8502709847,19.3595823204,2
2019-01-11 16:14:45.600,0.00596513402117,0.964828773099,-0.0806503272205,3.50702100288,-1.32493742358,-4.09056147455,heavy,A,3,1,0,0,0,0,0,-0.310435846156,-0.0844700077312,0.0713384774273,0.96821207362,5.54863484725,-0.0146468415761,0.975211404372,-0.00970403731316,6.86227191707,-1.86654355546,1.53108875736,0.977064635099,9.6929812467,0.0134035421674,0.0204643819649,0.0626207782791,5.31988254788,1.17810174999,5.58658521682,0.0195744271798,3.09925692613,0.0,-0.00492020734482,0.000861617556073,4.88532317549,-0.0251837184232,-0.034890590615,0.0,0.0101719273962,0.00640975145437,48.4649062335,1.27849284392,0.380466215188,2
2019-01-11 16:14:46.000,-0.0508115841566,0.856075721172,-0.168835106177,20.4313455589,-6.1182794369,-16.0175648194,heavy,A,3,1,0,0,0,0,0,-0.28026179599,-0.149499102144,0.0609180415634,0.87404390653,26.6727502774,-0.0177742142291,0.942865361007,-0.0874552137075,8.96647397211,-2.88369520555,-4.30493401063,0.948970358818,14.4734355831,0.0219643682809,0.0525760368269,0.0575371727524,8.15799301491,2.106876821,11.8397879827,0.0455582547926,9.1312211907,0.0,0.0100155574323,0.00328740657703,4.74485179409,0.0168067607369,0.0887558272601,0.0,-0.0769914856681,0.0839182507745,72.3671779153,-0.612445783551,-9.30930892062,2
2019-01-11 16:14:46.400,-0.132014937439,0.926891504063,-0.230772588493,-1.88684677683,-17.5419364473,9.39949277793,heavy,A,3,1,0,0,0,0,0,-0.31274452811,-0.196921165871,0.0395750452835,0.964267489658,19.9907526012,-0.0569855115938,0.901013324287,-0.162975842322,9.98982766237,-8.15239964836,-5.89246918856,0.921176707961,18.8797014288,0.0595295982335,0.0588825793816,0.0656065034102,8.99248329961,7.77469486563,10.7456759827,0.0514668895249,7.90257035912,0.0,0.00423315299354,0.00953106743702,4.6058835398,0.15519611053,-0.0376076963816,0.0,-0.191185413407,0.26684885241,94.3985071442,-19.95191721,-13.375749244,2
2019-01-11 16:14:46.800,-0.151117377827,1.13753607221,-0.147619129299,-6.82014646901,4.57537649578,-9.96645471749,heavy,A,3,1,0,0,0,0,0,-0.383753593072,-0.143992074397,0.0232632199713,1.15698581875,12.9142823096,-0.115370235571,0.966677918817,-0.192141376102,2.72417161465,-8.47216753223,-2.78132486012,0.993844165607,19.1495715283,0.0405715074085,0.140203190733,0.0348292231538,13.8987555536,8.68102900134,10.4495304973,0.13684579933,5.29281333527,0.0,-0.0221337897283,0.0150318011637,4.96922082804,-0.18556687714,-0.113933770553,0.0,0.0638375366791,0.107546656597,95.7478576414,8.3640522556,10.4438946171,2
2019-01-11 16:14:47.200,-0.195287910085,0.9413309558,-0.167866833858,5.95400786166,4.6995326766,-3.51701038645,heavy,A,3,1,0,0,0,0,0,-0.321326889129,-0.169894148072,-0.00143718193344,0.975920391263,8.36093170966,-0.158840185919,1.0270556404,-0.175849481595,-1.99935735221,-1.54057214241,-2.97177707088,1.05528096864,15.0974193776,0.0257886243476,0.0917267364264,0.0367419590524,7.67329243317,10.9957425685,10.3927870202,0.084569983143,4.6779822306,0.0,-0.0133129200154,0.010218948817,5.27640484322,-0.186206524001,-0.041327173463,0.0,0.0647564488073,0.0983163543552,75.4870968879,1.74481199326,10.4885210658,2
2019-01-11 16:14:47.600,-0.140060697571,0.93800373896,-0.170591993963,-14.2798684306,3.83042912323,21.7002919573,heavy,A,3,1,0,0,0,0,0,-0.315856843055,-0.16205959809,0.02227424197,0.963623184503,26.2581320869,-0.169327475357,0.997730017152,-0.162743640272,-3.13738998544,4.81569301764,1.36130547917,1.02574750648,16.36577894,0.0232180964457,0.0900467090542,0.0187294368496,8.50540011232,2.43410318887,16.0612866721,0.084136434845,6.71135629263,0.0,0.0204151661818,0.0169058179328,5.12873753239,0.210582925725,0.117512854963,0.0,-0.0844697843222,0.204404861304,81.8288947002,7.47532143496,-16.104063011,2
2019-01-11 16:14:48.000,-0.0377541049128,0.890468713197,-0.108161308018,-0.650139186878,-4.23368276105,7.97515127527,heavy,A,3,1,0,0,0,0,0,-0.289590951942,-0.110338983842,0.0534202354598,0.897807757915,9.0526122499,-0.128135899709,0.920321334427,-0.153439922771,-4.99993847092,1.76698686092,11.4947823522,0.943849216674,15.8641551991,0.0675856085967,0.0233852031827,0.0319542837044,8.01322710794,3.51366915973,9.74191353814,0.0355534852462,7.56226451269,0.0,0.00658623256698,0.00154626204087,4.71924608337,0.0339153818132,0.0462625546579,0.0,-0.0659539381182,0.258786482057,79.3207759956,-21.5387186184,2.78065989475,2
2019-01-11 16:14:48.400,-0.0155918250423,0.958667963886,-0.136403666268,10.7360769255,-4.52907918964,-11.229261434,heavy,A,3,1,0,0,0,0,0,-0.311406992327,-0.121072266346,0.0741653536709,0.968448930074,16.1824663883,-0.0583157309513,0.92726204418,-0.131822442598,-1.67018267421,-2.060113927,6.74801775205,0.939823545022,16.3578259124,0.0530399035499,0.0303094756199,0.0252099617403,10.7289884857,4.92416609678,13.4252803305,0.0319850341813,7.12988960841,0.0,0.00385101227943,0.00107994839651,4.69911772511,0.0456962301168,0.0138028685848,0.0,0.0647795082722,0.254032084743,81.7891295619,21.8951228354,2.85564260103,2
2019-01-11 16:14:48.800,-0.0815263515196,0.768249547662,-0.199014458013,10.598114551,-9.33748642809,-8.1692669236,heavy,A,3,1,0,0,0,0,0,-0.253871468964,-0.175100242582,0.0485090941244,0.797784850679,16.3170342556,-0.0377015633046,0.882282776153,-0.145363427253,8.17224035621,-5.80385929836,-5.61745234697,0.896581218982,14.4731523157,0.0267785892906,0.078694572573,0.0397179673803,5.56386094906,2.59909139878,9.05663532997,0.0698829838605,4.78820200058,0.0,0.002691789719,0.00195167551577,4.48290609491,-0.0421684833357,0.0452348306674,0.0,-0.0619695086253,0.133370776751,72.3657615787,-12.5238996275,-1.02745053708,2
2019-01-11 16:14:49.200,-0.172374393934,1.16542552505,-0.161022821717,-8.23441706349,-6.323419071,3.17640321442,heavy,A,3,1,0,0,0,0,0,-0.395336976734,-0.154705634826,0.0176673511707,1.18905758281,10.8572920428,-0.0881381547395,0.929803554708,-0.172709357425,5.33833887118,-7.43364361272,-5.8158200512,0.952059564329,15.5851783795,0.0653272638641,0.149987033013,0.0255678267494,9.23039193398,4.22675948046,8.14760917144,0.148526399057,3.57809829862,0.0,-0.00590012666731,0.0206319114411,4.76029782164,0.19525926255,-0.154285848188,0.0,0.00493530169445,0.00299942168205,77.9258918976,1.4186109335,0.0746090885049,2
2019-01-11 16:14:49.600,-0.192205200575,1.09620487523,-0.141564082829,5.19985975309,10.2804904562,-12.1712286054,heavy,A,3,1,0,0,0,0,0,-0.372925653936,-0.148765273127,0.00206643060845,1.1218949849,16.7590522177,-0.153665791257,1.03766070376,-0.165744710982,0.624753973948,-2.50676997079,-4.19916254156,1.06366543845,13.5676484256,0.0464683428393,0.19484341992,0.0300792127077,7.48209854739,10.4301611774,6.67283429722,0.191254003705,3.09506021695,0.0,-0.0417574284543,0.0628617396717,5.31832719227,-0.552109166178,-0.11259230326,0.0,0.0159734448298,0.0943300445643,67.8382421281,8.97331584949,-2.09985127442,2
2019-01-11 16:14:50.000,-0.18758362819,0.893955119736,-0.200908370449,-2.67156742498,-4.70397718383,12.5188796582,heavy,A,3,1,0,0,0,0,0,-0.305512773461,-0.189564375445,0.00611783252067,0.935258010917,13.6377058829,-0.18701836055,1.0661271133,-0.16285520663,-0.728238663114,1.70137981559,-1.43161752871,1.09582159223,11.9061994754,0.00866383486843,0.151627413531,0.0275640752865,6.3019024307,7.14360152207,9.52267543239,0.143004875315,3.32754772727,0.0,0.0124638606499,0.00947555339654,5.47910796114,0.181395796508,0.0516941799441,0.0,-0.0136060796916,0.0106113445413,59.5309973771,-2.14731836629,-0.474950215132,2
2019-01-11 16:14:50.400,-0.0882098672958,0.908267657287,-0.15407683296,-9.26942310089,-0.488063457246,23.3881512331,heavy,A,3,1,0,0,0,0,0,-0.301020071366,-0.144863081504,0.0408501770364,0.925457070002,25.162790558,-0.163025032526,0.94925171442,-0.17224623476,-2.21656009392,0.670436660987,8.94919557856,0.979649812961,18.4070353169,0.0451523460312,0.0831516136568,0.0241579465943,7.92959113175,6.15995303705,16.8167103095,0.0809337165907,8.18015299124,0.0,0.0252542562203,0.0200662661139,4.89824906481,0.180496351877,0.17511657798,0.0,-0.00438087251582,0.0392451397795,92.0351765844,-6.69933403204,2.57937628417,2
2019-01-11 16:14:50.800,-0.00349894990214,0.861930864384,-0.149506269273,10.3028099878,0.278083641819,-13.7220548167,heavy,A,3,1,0,0,0,0,0,-0.27791914447,-0.129771916979,0.0776875878453,0.874808083056,17.161585374,-0.0914034113515,0.892995198959,-0.165691300856,-2.51788668035,-1.59299297117,10.7061398933,0.915682663299,17.9912654375,0.0792462186963,0.022541280256,0.0268519386468,8.40704443735,2.76327205732,15.8862908089,0.0312481112546,8.96965876956,0.0,0.00373983547756,0.000668981430138,4.57841331649,0.0286546020853,0.0202837669588,0.0,-0.0768986344192,0.111413020741,89.9563271875,2.55444925331,-13.4383481398,2
2019-01-11 16:14:51.200,-0.0851508766077,0.809109716687,-0.205594036851,14.104452641,-9.7710062321,-4.38605019811,heavy,A,3,1,0,0,0,0,0,-0.268156441234,-0.178285313575,0.0505359838673,0.839153212121,17.7100418811,-0.0471069342453,0.856486947089,-0.165070037301,6.34737165317,-2.45511236252,-1.33562108988,0.874688181526,18.1047575805,0.037765895504,0.0411817668706,0.0272390267166,10.8684524982,4.48345740956,16.5035187162,0.0362109857553,7.80952657936,0.0,0.0101078081485,0.00403256449037,4.37344090763,0.0718892139617,0.0550330072285,0.0,0.0847539374391,0.177258419447,90.5237879026,-1.38078579349,19.0258682371,2
2019-01-11 16:14:51.600,-0.1319587697,1.15131908245,-0.194531055372,-11.0365794414,-4.07218782659,2.72143557588,heavy,A,3,1,0,0,0,0,0,-0.388000693516,-0.16789827992,0.0424825612395,1.17507066937,12.0745604912,-0.074951672255,0.915770785868,-0.188293832599,6.35221439576,-5.85433176994,-5.03941703619,0.939389689358,17.2182262766,0.0553652841932,0.140501112903,0.025196011091,11.2970092618,5.00343423486,10.7338377156,0.141456872682,4.72359393896,0.0,-0.019859843626,0.0137787228034,4.69694844679,0.037388809158,-0.198842824913,0.0,-0.0079505506272,0.0138097413642,86.0911313832,2.45017981763,-2.59178207423,2
2019-01-11 16:14:52.000,-0.163142499108,1.10153635334,-0.154323495157,0.623537437948,13.4228907309,-18.5311458192,heavy,A,3,1,0,0,0,0,0,-0.372636854544,-0.151031795016,0.0181331695975,1.12419462457,22.8903071164,-0.128212968837,1.04688952976,-0.186427004567,-1.17648732181,-0.684125260312,-5.04478923905,1.07223386616,17.295043487,0.0286770262016,0.172786017837,0.0256808956668,10.4987028846,11.3906482598,10.8370990879,0.167911166034,4.20020778957,0.0,-0.0357531025362,0.0498024121181,5.36116933081,-0.482023088246,-0.100678546858,0.0,-0.00516031753351,0.0229212935448,86.475217435,3.88136552837,-2.84386954312,2
2019-01-11 16:14:52.400,-0.20554245582,0.88235670893,-0.208845671951,2.52543190586,-6.66267312352,12.3899682991,heavy,A,3,1,0,0,0,0,0,-0.303228142102,-0.197724359602,-0.000513774023525,0.929740596958,14.2926671379,-0.166811643876,1.05886469608,-0.18011463978,-2.00441053982,3.24091653675,-4.55472124904,1.08872504408,16.1016861313,0.0321506955968,0.151996837423,0.0220170440873,8.85844458387,8.52815297317,12.3310815077,0.140698240237,4.82286154399,0.0,0.0117378904047,0.00828490623073,5.44362522038,0.166006266646,0.0498577965925,0.0,-0.0511218821015,0.0513260678534,80.5084306565,-5.73140062167,-4.33641347866,2
2019-01-11 16:14:52.800,-0.119099592809,0.945855801491,-0.145778898908,-17.5446015596,-3.56037943496,24.0259073558,heavy,A,3,1,0,0,0,0,0,-0.316211986585,-0.143884571852,0.0263991313521,0.964406240953,29.9622023536,-0.172262305584,0.957606425354,-0.177558471425,-3.47513206856,-0.197772207446,7.18219656123,0.990289313908,21.5421072346,0.0336195072263,0.0840491773665,0.0276800086734,10.9449067972,9.09232925287,19.1001402522,0.0767058344334,8.17455312508,0.0,0.0232762391091,0.0177688225376,4.95144656954,0.177354215845,0.157409060799,0.0,0.0126301708411,0.00489585767621,107.710536173,1.12910956774,2.2413901368,2
2019-01-11 16:14:53.200,-0.00689226927848,0.854239805697,-0.0933260851908,11.80757605,-1.10401823599,-8.33541329721,heavy,A,3,1,0,0,0,0,0,-0.274254210088,-0.0977958045773,0.0633457644655,0.85935028201,14.4954069718,-0.11205304206,0.903420094139,-0.148147977263,-4.34809886812,-4.00325398084,12.6905519355,0.926445490603,20.0080612362,0.0844906080216,0.0381301421061,0.0561256380657,11.6790870406,3.61474894286,13.3587126676,0.0469634578814,8.51452807883,0.0,0.00168529363215,0.000414865542572,4.63222745301,-0.014806654161,0.0230444200477,0.0,-0.0632555087414,0.0634891965271,100.040306181,-6.87987025646,-7.40861498929,2
2019-01-11 16:14:53.600,-0.0689228110774,0.802893619174,-0.205255611522,17.3412417763,-9.01393190208,-11.3369113843,heavy,A,3,1,0,0,0,0,0,-0.264649657234,-0.175599791382,0.0578127901405,0.8315758436,22.5941407098,-0.0522219092128,0.863956469909,-0.136974176401,5.42071386171,-3.6607741144,-0.728416678642,0.878332790478,21.8166148354,0.0447434971567,0.0585036617309,0.0468805174947,16.8035305603,3.49285561542,17.6491862069,0.0563393444457,8.07722698353,0.0,0.0161987686197,0.0104245957055,4.39166395239,0.131866220407,0.0833174057792,0.0,0.0682587886971,0.108744599273,109.083074177,5.38434417586,14.9796246195,2
2019-01-11 16:14:54.000,-0.163347420773,1.09295824328,-0.200011032314,-6.08867227419,-9.65259153855,4.68960022264,heavy,A,3,1,0,0,0,0,0,-0.370936577448,-0.178483880177,0.0268140467251,1.12305143002,12.3384279274,-0.0764616426404,0.892085553583,-0.173543062707,9.84059603589,-7.33463139863,-6.1374118245,0.914656259217,18.4363282577,0.0676092478363,0.11733925753,0.0524297487262,11.1302705321,4.47301459266,9.96309947049,0.122754083625,7.32522000963,0.0,-0.0179083108305,0.0123343046937,4.57328129609,0.0411647195177,-0.179429662537,0.0,-0.0545568151248,0.048227844542,92.1816412885,-1.73810052313,-8.11420269171,2
2019-01-11 16:14:54.400,-0.20049439171,1.13704270277,-0.166915051966,-2.65752551982,10.6095547465,-16.2075744429,heavy,A,3,1,0,0,0,0,0,-0.388121228969,-0.163500401838,0.00555593266436,1.16658679214,19.5527635676,-0.148629433044,1.03049245109,-0.193658276886,1.05744246892,-3.98608325904,-5.54820903353,1.06047978461,15.7652950753,0.0527335368215,0.17716274504,0.0221027785244,10.1374126009,9.49336552601,9.13490621199,0.175415051832,5.03925177929,0.0,-0.0369719936852,0.0464940523153,5.30239892303,-0.444989017648,-0.127270834866,0.0,0.0526688944138,0.147108079166,78.8264753763,13.9407374414,3.131376645,2
2019-01-11 16:14:54.800,-0.209694880677,0.828851517992,-0.20104517196,4.41390841954,3.71034350202,3.56849346758,heavy,A,3,1,0,0,0,0,0,-0.2852200636,-0.195412110017,-0.00650954395507,0.878285798034,6.7811047822,-0.193683911909,1.04211630413,-0.183972355591,-1.84956541624,3.34832640874,-4.97385676245,1.07713712286,12.8861976229,0.0197529470933,0.162642136385,0.0155652618116,5.1890179414,8.63139231227,8.9052679698,0.153334731476,4.73046698686,0.0,0.00775364118938,0.00229086352173,5.38568561429,0.0589768099397,0.0558089579702,0.0,0.028740232047,0.196168095063,64.4309881147,-9.98846439364,8.6190401549,2
2019-01-11 16:14:55.200,-0.188154807389,0.999911988401,-0.222809618633,-7.59032416349,-4.31536098093,12.8498194415,heavy,A,3,1,0,0,0,0,0,-0.34203496461,-0.198901881134,0.0157262944664,1.04157109323,15.5355470126,-0.20220699992,0.95962748534,-0.198862809814,-0.45318880705,3.53258347809,0.172879571302,1.00165305106,13.4111898651,0.00888406839781,0.116281602941,0.0269040366259,4.75696047557,7.621279701,12.3519040667,0.108797379859,4.93458317991,0.0,0.0241917818834,0.0280162545574,5.00826525532,0.300132851819,0.112201500879,0.0,0.0474851886046,0.192765720951,67.0559493257,15.0548730532,0.299061202937,2
2019-01-11 16:14:55.600,-0.0888232470392,0.920870491282,-0.0916576941404,-15.1083552606,4.86490327784,20.7443748468,heavy,A,3,1,0,0,0,0,0,-0.303897703864,-0.107831209238,0.0271084827659,0.929673686744,26.1200836593,-0.168309541852,0.928423901023,-0.18205378577,-6.64490935139,0.236740595705,13.1674907296,0.963473122509,16.7548029697,0.0496963487545,0.0680267800576,0.0557348781387,9.24740309238,4.2415678341,7.04386302351,0.0644705572833,8.61447548513,0.0,-0.0124061398199,0.01252240134,4.81736561254,-0.197445435547,-0.0155228756405,0.0,-0.149388080941,0.207210561931,83.7740148487,-14.7086500151,-10.2255954538,2
2019-01-11 16:14:56.000,0.0065554035057,0.932143996386,-0.0748524944949,8.03827175262,-2.72646157697,-2.47876968414,heavy,A,3,1,0,0,0,0,0,-0.299136415792,-0.0821594477096,0.0689289212658,0.935167524696,8.84260734437,-0.089246125202,0.948476480944,-0.122330064634,-6.81142227103,0.383677592033,12.0916858573,0.96470756302,17.3389151515,0.0824585451831,0.0410087588122,0.0705880175661,9.82735960761,3.87996881922,9.23224285245,0.0575272423523,7.87447938555,0.0,0.0113848031495,0.0088155574055,4.8235378151,0.155906775393,0.0362520501255,0.0,-0.0145476526603,0.0168779777931,86.6945757575,-4.23437812477,-0.274042222412,2
2019-01-11 16:14:56.400,-0.0184228787974,0.966415915482,-0.105327725076,2.01536591862,-7.06796445759,0.868101273174,heavy,A,3,1,0,0,0,0,0,-0.313620144847,-0.103043698039,0.0656447552804,0.972313248819,7.40077166113,-0.0252819933942,0.935859479352,-0.0864887679798,-0.03054705154,-1.85475571673,5.15127078272,0.940969484659,13.0772705104,0.0375623771178,0.0245115077792,0.0218562195328,9.70952539564,5.74187109799,10.2658091722,0.0255057010019,7.50552151968,0.0,-0.00181765041948,0.000288370181266,4.70484742329,-0.022477236124,-0.00576225866397,0.0,0.12763773148,0.424651159845,65.3863525519,15.1834520823,17.42358079,2
2019-01-11 16:14:56.800,-0.0380704410616,0.903641105684,-0.132674738722,15.1522662355,-3.27870883888,-17.4238512906,heavy,A,3,1,0,0,0,0,0,-0.294498378912,-0.124503556858,0.0607880679988,0.914122088487,23.3223433111,-0.0151853153394,0.943628658433,-0.103167941725,7.38550268427,-4.79068136872,-5.52528422354,0.949718506496,11.6534549387,0.0177433896947,0.0259456649342,0.0207528840277,5.14838098089,2.33300863728,6.99591148244,0.0244686411353,6.79478277943,0.0,-0.000955550973206,0.00150014953291,4.74859253248,-0.0547438621853,0.0183664076852,0.0,-0.108171326338,0.321231198795,58.2672746934,8.11662444706,-15.1437434328,2
2019-01-11 16:14:57.200,-0.138473979392,0.822563329716,-0.251833040718,12.7436148151,-16.0497403456,2.18951293392,heavy,A,3,1,0,0,0,0,0,-0.278293253284,-0.213945377547,0.0370965361449,0.871323909209,20.6103821072,-0.0602139290306,0.894205935316,-0.158604459993,11.156158392,-7.91207008833,-7.0399876914,0.914193117619,17.4836016296,0.0503747279213,0.0725604725084,0.0675601705045,8.49898176232,5.32767256503,9.17671624875,0.0562349985487,9.92528019461,0.0,0.00923629534091,0.00584755603651,4.57096558809,0.116357356374,0.0289429716275,0.0,-0.0958330578408,0.291761728819,87.4180081482,-26.5666939935,1.35961907222,2
2019-01-11 16:14:57.600,-0.173295102548,1.16765007567,-0.176883966311,-17.2119250431,0.193007369646,-1.01826588271,heavy,A,3,1,0,0,0,0,0,-0.396609495041,-0.163771837949,0.0203987266275,1.19361879565,17.2430995167,-0.120469256364,0.938963936048,-0.199621880469,5.30603677645,-8.2919831239,-3.98232370526,0.970108984766,21.7936917512,0.058890186558,0.145055530365,0.0467019700814,16.5400423259,6.6546538052,12.5356300582,0.142547166509,4.71758188059,0.0,-0.0153861723031,0.00764973948243,4.85054492383,0.00997655812399,-0.149943798822,0.0,0.00379627110179,0.0234634094736,108.968458756,5.93053079804,-2.10890189835,2
2019-01-11 16:14:58.000,-0.201338942663,1.0094352024,-0.149243313065,0.18478192534,12.5456578456,-16.3960222229,heavy,A,3,1,0,0,0,0,0,-0.344495748749,-0.157501118113,-0.00497422518533,1.04008190263,20.645997672,-0.172275572712,1.03209401427,-0.190892827333,-4.54555264848,-0.919617279191,-4.36558998272,1.06580611743,20.3935034994,0.0224878540225,0.146517265727,0.0480539169236,11.6116690726,13.1407553779,13.0351482055,0.13610690723,2.87477285396,0.0,-0.0282179688737,0.0396915930388,5.32903058713,-0.425792293121,-0.0604132274192,0.0,0.00584232186944,0.00458139932972,101.967517497,-1.3111859373,1.85338245671,2
2019-01-11 16:14:58.400,-0.221555948572,0.872025006473,-0.185422104118,6.82498021571,-0.34121411034,10.5787879119,heavy,A,3,1,0,0,0,0,0,-0.30046385022,-0.186979835818,-0.0131342391016,0.918638126227,12.5939483761,-0.199503530963,1.01781843792,-0.164702352679,-2.94407302396,6.03517238506,-4.91510445,1.05167376304,17.0522209752,0.0235584992948,0.152217407334,0.0171016421596,11.1114997245,5.99720577169,12.3927997704,0.141771290597,6.00849343957,0.0,0.0194795383037,0.0208018045469,5.25836881521,0.27235253902,0.0825100424893,0.0,-0.00911314139926,0.029181991188,85.2611048761,4.07977375707,-3.60257740341,2
2019-01-11 16:14:58.800,-0.185684181377,0.981771558382,-0.198021912549,-6.87507909079,-6.55929002582,10.3278878581,heavy,A,3,1,0,0,0,0,0,-0.33508190471,-0.184642769515,0.0105323159515,1.01861017367,14.0341107932,-0.207135516574,0.936674978686,-0.18031554605,1.73536781251,1.41250871378,2.76712133367,0.976697996912,13.4123666509,0.0156608439603,0.0656428345381,0.0224669757006,5.78994879654,8.0806630689,11.3907923791,0.0600735372712,4.41993814795,0.0,0.0115472745843,0.0048752771956,4.88348998456,0.0840364158129,0.0744233484737,0.0,0.0771723089803,0.17687787182,67.0618332547,9.88452895642,8.19954859626,2
2019-01-11 16:14:59.200,-0.093791100475,0.920792137166,-0.112622978226,-10.1748869306,3.6997361295,23.3086267325,heavy,A,3,1,0,0,0,0,0,-0.304748846768,-0.121037113195,0.0297525282058,0.932383432725,25.7003589787,-0.172122992171,0.934913983366,-0.171426551852,-4.34612031181,-2.2440708654,14.6586374851,0.967533622452,17.3428015687,0.0500421395967,0.0415021044326,0.0371682654006,8.15442641103,4.08042399339,6.85938269554,0.0424665915756,7.26154522991,0.0,-0.00803984937178,0.00369243561029,4.83766811226,-0.0928321136392,-0.0294066269239,0.0,-0.0538869111669,0.0615888349536,86.7140078433,-7.61227611404,-4.25985686747,2
2019-01-11 16:14:59.600,0.0233140505947,0.91928699447,-0.109500582218,6.2939116017,0.279350087071,-2.86318140214,heavy,A,3,1,0,0,0,0,0,-0.294216687079,-0.0999438856128,0.0834259570469,0.926079100651,6.92019995829,-0.0858829400103,0.93842268606,-0.13586083838,-4.76370422968,0.0914694408022,12.3178756707,0.955755749279,16.5615552486,0.088828999099,0.026061966227,0.0412738686357,7.72429431268,4.97874366609,10.3932633266,0.039064237801,8.22528269939,0.0,0.011073833905,0.00513828467826,4.7787787464,0.0956341189867,0.0615019419986,0.0,-0.020229196287,0.0368478870314,82.8077762432,-6.44796493806,0.129353799575,2
2019-01-11 16:38:55.000,-0.0377359111006,0.992443634039,-0.00267176140752,-0.6288794906,-6.91226985889,3.66937664904,heavy,A,9,0,0,1,0,0,0,-0.321635594992,-0.0453422780412,0.0353185050465,0.993164389233,7.85106929076,-0.023765579838,0.935648544434,-0.0814902614401,-0.298114820741,-0.763230944242,6.65279594707,0.941327784,11.9388873487,0.0455080351295,0.0319065263464,0.0456779299261,6.21634251547,5.88602733736,10.5489283564,0.0292842116007,7.909531746,0.0,-0.00408577259488,0.00181888805402,4.70663892,0.0318338230232,-0.0541947012116,0.0,0.129733180074,0.508579159701,59.6944367435,19.9767669335,14.4269121415,2
2019-01-11 16:38:55.400,-0.144869975173,1.14944643982,0.0536967838028,18.9010563414,5.9793942551,-34.493403013,heavy,A,9,0,0,1,0,0,0,-0.38222765978,-0.0251701697796,-0.0157681197064,1.15978350235,39.7843931447,-0.0470924024722,1.01861107394,-0.0150190577547,6.80311067309,-1.5660457588,-8.87554708284,1.02390531915,14.7391890025,0.0685104640871,0.107824361795,0.0785136704029,7.31718365962,5.41005086261,15.1204741227,0.109641588538,14.1163606105,0.0,-0.0179892752898,0.00976046886111,5.11952659573,-0.13834302709,-0.106222519147,0.0,-0.207596149078,0.371610667867,73.6959450125,5.8691121753,-25.4165847858,2
2019-01-11 16:38:55.800,-0.325345907306,0.887368185246,-0.0974281214473,3.26232886188,7.71904246459,-9.05910824168,heavy,A,9,0,0,1,0,0,0,-0.312230134632,-0.152151377291,-0.0786159504795,0.9501391974,12.3407393744,-0.166182942861,1.03630409983,-0.00143754891262,9.52669545473,2.95772091737,-17.7488783142,1.05760263459,23.2423015118,0.11693634715,0.103429290783,0.065713896481,9.38396626571,6.53133977204,18.2462432998,0.0864127205344,17.5085063069,0.0,-0.00745647856853,0.00810381112787,5.28801317296,-0.169276223178,0.00818060977783,0.0,-0.0766958527561,0.523412107276,116.211507559,-53.1088352176,14.630754665,2
2019-01-11 16:38:56.200,-0.234632545143,0.86274400601,-0.0732088464607,-13.3960630446,-1.25715891075,39.8198719042,heavy,A,9,0,0,1,0,0,0,-0.295947179251,-0.1235707178,-0.0460897712565,0.897072564705,42.0316208596,-0.254452307953,0.953917630651,-0.0499482659994,2.84891586212,5.06424696797,-2.5806842045,0.994649908811,34.4756540566,0.0757282408555,0.135502358794,0.0658947989403,16.7258317889,3.85862144208,36.2029741882,0.115224972615,13.0427339017,0.0,0.0257673864651,0.0267334108028,4.97324954406,0.270526784486,0.14230719935,0.0,-0.0039423569959,0.177063299985,172.378270283,29.4712916067,-16.1994438864,2
2019-01-11 16:38:56.600,-0.0934605829955,0.806080876693,-0.0747646247163,22.413088406,-7.04695604824,-18.4522291999,heavy,A,9,0,0,1,0,0,0,-0.264618292564,-0.103319265286,0.0184798341449,0.814917793064,29.8745859199,-0.221397085451,0.851017100888,-0.0810112217774,0.644545264828,-0.490544846524,11.193655525,0.888053951894,26.7790364449,0.10910610378,0.0323445148438,0.0214716747649,15.2637659184,6.50619659722,24.8220384114,0.0487191684589,12.3488153275,0.0,0.0145448023984,0.00629314770593,4.44026975947,0.0430646662623,0.112148447502,0.0,-0.145918305611,0.177967567662,133.895182225,-15.1085713181,-20.9871713582,2
2019-01-11 16:38:57.000,-0.22859211549,0.84960007968,-0.15595006052,4.47921496775,-5.06168661542,-4.23654643247,heavy,A,9,0,0,1,0,0,0,-0.292749683374,-0.171703569302,-0.0238678728166,0.893529558567,7.97698964488,-0.166655181712,0.831437535325,-0.0956054651171,8.14910196224,-4.93105748665,1.13823344551,0.855771104078,25.9354750308,0.062676501575,0.0418488765161,0.0420833373362,14.7781762425,2.2312699496,26.2826847152,0.0476850448383,13.7246111336,0.0,0.00363589953177,0.00955882917982,4.27885552039,0.142775668387,-0.0395220168206,0.0,0.121262425312,0.317318699186,129.677375154,-1.93781974682,42.1781843189,2
2019-01-11 16:38:57.400,-0.178464962163,1.08434770232,-0.0981237042214,-30.063190222,-8.96867158541,33.0848327024,heavy,A,9,0,0,1,0,0,0,-0.367092129869,-0.121337445664,-0.00496422477166,1.10330772841,45.5942828793,-0.179500625506,0.90090708493,-0.120350550887,0.21045429667,-6.80376248319,1.46462467999,0.9282829049,29.2947644757,0.0615878780042,0.133144030343,0.0346821750103,23.4910609766,1.76722806316,25.3395493339,0.136050340136,13.5984381331,0.0,-0.02339360687,0.0149853566142,4.6414145245,-0.159028040942,-0.124384738648,0.0,-0.0359533075691,0.228689732025,146.473822379,24.1724457554,-22.7228921449,2
2019-01-11 16:38:57.800,-0.00849806532868,1.09064117756,0.0548645050269,2.88858353955,0.462231248106,-0.552343262137,heavy,A,9,0,0,1,0,0,0,-0.351067825931,-0.00345969235362,0.0410907398045,1.09205334541,2.97702127485,-0.146691587246,1.02196596475,-0.0725281356272,-12.5387409843,-5.35249664608,14.8014364854,1.04356260461,23.7741671153,0.103071572587,0.104779039922,0.0918617770451,15.4767876806,3.66861191872,16.30355999,0.0880558167397,17.8457745965,0.0,-0.0270317892809,0.020239287832,5.21781302306,-0.226534558496,-0.148548056615,0.0,-0.1051647425,0.398396029799,118.870835577,-45.5948651044,6.10192142833,2
2019-01-11 16:38:58.200,-0.164112350539,1.11301620583,-0.0342327472604,24.9983619651,5.44447759942,-43.485901429,heavy,A,9,0,0,1,0,0,0,-0.373517459342,-0.0811192798814,-0.00633865420162,1.12557088583,50.4537814278,-0.0935980104225,1.1001393931,-0.00875613154162,0.24971246273,-0.807422646613,-3.17193985913,1.1075738437,34.1423788866,0.0745221490844,0.0160772279293,0.0625528852366,26.0336166521,6.1725430688,32.7948071121,0.0159701099148,18.6464654839,0.0,-0.000824777761379,3.15058023185e-05,5.5378692185,-0.00309571689353,-0.00756957132184,0.0,0.0245990845781,0.205580741612,170.711894433,37.645031096,-9.01527111426,2
2019-01-11 16:38:58.600,-0.317028920065,0.844208097047,-0.103336204438,-16.9389635004,1.43052433659,8.52442173282,heavy,A,9,0,0,1,0,0,0,-0.297243346007,-0.155456756267,-0.0773103170807,0.907674511279,19.0168517432,-0.16343894741,1.03377459308,-0.0286451484853,7.82926245909,3.24306538111,-18.7309894385,1.0585122776,28.2551747455,0.137389188583,0.116497703837,0.0776351684375,17.9511163508,2.16775567005,21.7982100885,0.0905143657977,18.2343375915,0.0,0.00945415838225,0.00486825070136,5.292561388,-0.0356125410811,0.119465210597,0.0,-0.262637511382,0.378859317894,141.275873727,-44.3633049755,-18.8320787011,2
2019-01-11 16:38:59.000,-0.152383516017,0.80495676248,-0.0250534841362,5.61513269751,-6.81892853275,31.6597394463,heavy,A,9,0,0,1,0,0,0,-0.268183126861,-0.0839384737083,-0.0211282709905,0.819636384309,32.8689306694,-0.233700938506,0.906895146773,-0.0637457867896,0.473578091398,0.248596561142,1.26758783612,0.942299976786,34.8388318133,0.0726246530417,0.144419392039,0.0384847609451,16.8314431598,5.27105131373,36.6842670554,0.138289177368,11.9164896998,0.0,0.0294124785467,0.0354396139047,4.71149988393,0.30814247137,0.150034801235,0.0,0.0671951201176,0.132259802637,174.194159067,20.7622741535,18.2750998826,2
2019-01-11 16:38:59.400,-0.145037063641,0.795150453427,-0.1327501969,22.1132061515,-5.37015958112,-33.7136816108,heavy,A,9,0,0,1,0,0,0,-0.26657955896,-0.146177449738,0.0076645987947,0.819098655958,40.6748672767,-0.194220371249,0.810290810666,-0.0750592469313,3.66184826626,-4.17313435436,7.77875293328,0.840864694113,31.5027364955,0.08793839872,0.0291955225045,0.0429436180899,18.5268521947,3.41265561263,29.5860409978,0.0390026132606,10.191308034,0.0,0.0152646853794,0.00714569624873,4.20432347056,0.067140077391,0.0998844655236,0.0,-0.121821598848,0.154535217318,157.513682477,-0.885653637453,-30.3290582431,2
2019-01-11 16:38:59.800,-0.280227567291,0.879027660824,-0.193753636938,-7.58893911046,-9.24705086071,15.6024160119,heavy,A,9,0,0,1,0,0,0,-0.30806487223,-0.201418700663,-0.0384955064116,0.942739407148,19.6605018209,-0.182618641508,0.817208377564,-0.119714120324,10.2886299134,-6.92032448113,-2.65192238515,0.850348711704,27.9417868462,0.0716383383687,0.041116048981,0.0736115868533,12.2381467086,1.42027851745,26.4179644416,0.0525670652197,8.64542173131,0.0,-0.011584135795,0.00707270426124,4.25174355852,0.0398917043025,-0.11667252279,0.0,0.04977619224,0.0947757920333,139.708934231,-5.63354053701,17.9514000951,2
2019-01-11 16:39:00.200,-0.164232335417,1.14132559282,-0.092819563239,-20.4850506414,-5.75092784836,20.2635564661,heavy,A,9,0,0,1,0,0,0,-0.384990158357,-0.114050463041,0.00400250282994,1.15681106502,29.3823448954,-0.21370033572,0.93001779165,-0.152696064917,-3.35077470295,-7.25124707825,2.96754705756,0.969597717369,30.5789211442,0.0570866130053,0.164116483062,0.0407749572453,19.0553786036,1.93045675783,28.3160441409,0.155249153841,9.51644436884,0.0,-0.0296334036043,0.0229669519516,4.84798858685,-0.222443691494,-0.153803962035,0.0,0.0585233651019,0.0842508977219,152.894605721,8.77961591587,16.4602494153,2
2019-01-11 16:39:00.600,-0.0799323618243,0.969785290723,0.0128752863497,5.66380190905,-1.40887455661,-2.27858765668,heavy,A,9,0,0,1,0,0,0,-0.317044910057,-0.0440428405726,0.0121681110998,0.973159013506,6.26542427058,-0.173525749928,1.02183715593,-0.0912190519045,-10.1553607776,-5.58586017133,13.8006468842,1.04731370523,20.6799227726,0.0889430073586,0.100294404127,0.0883083397693,11.0417573007,3.78343157961,13.9492712019,0.0889650812037,14.2208199311,0.0,-0.0156969744071,0.0129527445658,5.23656852616,-0.210493362677,-0.0509423825308,0.0,-0.0213387627706,0.0317393088984,103.399613863,3.51104274619,-6.05959512543,2
2019-01-11 16:39:01.000,-0.179147215174,1.16085400212,-0.0252172689928,8.42164700467,2.39165561828,-23.9777885342,heavy,A,9,0,0,1,0,0,0,-0.390938112286,-0.0766139203683,-0.0141045715257,1.17486665184,25.5260356863,-0.126455013983,1.07265097102,-0.0247704639569,-0.80840560879,-1.59402554145,-2.04428364062,1.0813674199,16.2931965926,0.0432260952632,0.0787222500181,0.0412246991559,12.9398505096,2.90549192679,16.0247291439,0.0839731078115,10.4907175874,0.0,0.00708007657863,0.0124718406935,5.40683709952,0.218753474861,-0.0301443620811,0.0,0.0886364137182,0.338054919453,81.4659829632,24.9605795925,7.76229116445,2
2019-01-11 16:39:01.400,-0.327582346549,0.939481893322,-0.0748640828666,0.219104296466,7.0519573395,-17.1049739003,heavy,A,9,0,0,1,0,0,0,-0.329556496654,-0.137572843557,-0.0820432479868,0.997768035444,18.502925205,-0.192280669701,1.04799417148,-0.0272217821546,6.10053624504,2.78251787651,-17.2494861712,1.07054417543,19.8921614071,0.102778092009,0.0980582644018,0.0365186941157,3.66537059366,4.12650570135,13.4154432061,0.0945365855907,11.9976727838,0.0,-0.00958291952043,0.0209457285759,5.35272087717,-0.291079377802,0.0476164729849,0.0,-0.126926462117,0.346811601279,99.4608070354,-34.9327876067,0.865944765425,2
2019-01-11 16:39:01.800,-0.255191080387,0.814297017652,-0.0555983183031,-12.6300627562,-3.64111376072,42.9040837443,heavy,A,9,0,0,1,0,0,0,-0.280823421626,-0.118374919403,-0.0617346082492,0.85515688237,44.8724480788,-0.270773700741,0.967378204602,-0.0578186319992,-1.6551135529,2.89528878321,-2.23688432876,1.01027172451,30.255389959,0.0621691921717,0.174997725934,0.0223240496636,9.65560710147,4.41667045941,33.5064021795,0.157413012454,10.5516881772,0.0,0.0239849717087,0.027472237515,5.05135862256,0.298869815255,0.112617503054,0.0,-0.0700328031952,0.194044778563,151.276949795,15.4185246784,-27.24191036,2
2019-01-11 16:39:02.200,-0.106917627941,0.8475949346,-0.0542826598107,29.6096871167,-4.01620907337,-15.1133447047,heavy,A,9,0,0,1,0,0,0,-0.279268376272,-0.0922885176303,0.0103608667322,0.856034555074,33.4854699031,-0.234791569867,0.856233255529,-0.0583593164985,2.46367403774,-0.732328414202,10.990368112,0.894536525884,28.9727460876,0.101180465463,0.0611014423886,0.022261694791,16.9911421496,5.05741325642,26.1657041707,0.0617033990412,10.4349474225,0.0,0.0218896363541,0.0138214402967,4.47268262942,0.101938960612,0.156139813288,0.0,-0.072335292083,0.0996617834662,144.863730438,-18.0074389151,-8.16711329134,2
2019-01-11 16:39:02.600,-0.205892841097,0.779718907948,-0.217088572425,-2.13608802569,-9.1443713798,-3.45592849841,heavy,A,9,0,0,1,0,0,0,-0.268683266714,-0.205932710959,-0.004049656288,0.835153210917,10.0062901103,-0.172816278264,0.815180613478,-0.100053563602,9.88172812823,-5.45017936991,4.03765102392,0.844420056127,29.9892235825,0.0581505774694,0.0587767203987,0.0802401016277,18.7887524032,2.20600481886,27.8923751182,0.0496250462063,13.8291680773,0.0,-0.00146096808484,0.00456847964371,4.22210028063,0.0785144078641,-0.0516723422564,0.0,0.104156915729,0.254939257968,149.946117912,-3.55748578385,40.7655470246,2
2019-01-11 16:39:03.000,-0.173297272926,1.13786372194,-0.0584967534703,-33.6320761683,-8.84689131139,26.4405949188,heavy,A,9,0,0,1,0,0,0,-0.383875270019,-0.0954684190265,-0.00879757567936,1.1524702446,43.6862574836,-0.170200193627,0.897803959302,-0.131148115054,-1.9999333271,-7.62869107082,0.849264762598,0.927181814918,33.3390712638,0.0471161248947,0.162605906333,0.0724843455481,31.1400235354,2.68167024929,22.7530436863,0.156865538341,13.5600042934,0.0,-0.0169524302558,0.00724617913999,4.63590907459,-0.0534377877896,-0.124430361822,0.0,-0.0258718207487,0.122719336256,166.695356319,18.0207187033,-17.6547221051,2
2019-01-11 16:39:03.400,-0.0573008930881,1.02621520815,0.0754469849417,6.25903288971,-5.95015434263,1.60212172939,heavy,A,9,0,0,1,0,0,0,-0.332795029754,-0.00191233972422,0.0113749671257,1.03057910581,8.78331506046,-0.152077241518,1.00749990267,-0.067167604464,-14.7876112784,-8.30176638447,12.2354572261,1.03155187873,24.6517982618,0.0706791619867,0.141950740838,0.12935034786,17.9095501013,1.78151123842,12.8557997476,0.122970551559,16.618736107,0.0,-0.0330044253025,0.0364395693052,5.15775939366,-0.365898052143,-0.125098617394,0.0,-0.13524119589,0.218027418071,123.258991309,-26.3555275702,-10.2582428085,2
2019-01-11 16:39:03.800,-0.117947239236,1.13076415472,0.0443850763078,13.2266202707,3.38714890156,-27.2287028761,heavy,A,9,0,0,1,0,0,0,-0.373928387171,-0.0266892734013,-0.00296219842692,1.13776498445,30.4601136206,-0.102389542725,1.09096746404,0.0343040622382,-2.97961360176,-4.24194979974,0.923170057378,1.09804938432,23.7654138513,0.0471557357977,0.0503985983076,0.0539106864287,19.7785282675,4.81773525573,21.0424270638,0.0535488063186,13.6325518006,0.0,0.00482555459751,0.00740342886335,5.49024692159,0.163504247964,-0.0274520972718,0.0,0.0891551010559,0.362026606585,118.827069257,39.467612419,10.3344966618,2
2019-01-11 16:39:04.200,-0.332152049503,0.949311677615,-0.0810001117768,11.2511891269,8.94229929117,-27.0798016556,heavy,A,9,0,0,1,0,0,0,-0.333309464667,-0.141732204419,-0.0813903242916,1.0089988421,30.6572932773,-0.157787956097,1.05194630517,0.0199332416881,11.712470527,2.43834075686,-20.4299280519,1.0712798283,25.714681343,0.117167107875,0.0710494042475,0.0651423855981,3.79774005472,6.65095354868,15.7925651361,0.0576701307493,13.4960686911,0.0,-0.00188909129249,0.00877918587946,5.3563991415,-0.163797578365,0.06204577213,0.0,-0.140362385078,0.277156355904,128.573406715,-36.2346208566,-6.09379484973,2
2019-01-11 16:39:04.600,-0.3341598571,0.806239522086,-0.106857146878,-18.9635918278,0.288583955712,38.9375618174,heavy,A,9,0,0,1,0,0,0,-0.285949692161,-0.161662191365,-0.0868467925335,0.879263002127,43.3109087413,-0.278101933482,0.961080490134,-0.055384336144,3.22506778036,5.26382510113,-9.26368468714,1.01255041538,31.6838307855,0.108528652463,0.154113297485,0.0716130346692,15.2153770999,3.61895700894,32.0538959909,0.119120305803,13.1198835876,0.0,0.0196052418178,0.0160637236731,5.06275207691,0.204498311358,0.108538111313,0.0,-0.0474067059272,0.222363329434,158.419153927,23.341811152,-26.4011040641,2
2019-01-11 16:39:05.000,-0.104451827572,0.886211056334,-0.0397234441125,10.2913383139,-4.53377171132,8.71417304437,heavy,A,9,0,0,1,0,0,0,-0.291997777752,-0.0818163031011,0.00858291877408,0.893229070655,14.2268598808,-0.273056982471,0.864947456258,-0.0819952170631,-2.98118899718,1.30871245357,13.3921061956,0.917351347956,27.957270436,0.115124998699,0.0582593644946,0.0352848484248,13.3642346848,5.70252443386,27.331365327,0.0524200499782,14.7834291377,0.0,0.016974365474,0.0105845020311,4.58675673978,0.131251749136,0.0978669862165,0.0,0.0730877173306,0.391368259388,139.78635218,-29.3399324352,36.0899895383,2
2019-01-11 16:39:05.400,-0.157153337344,0.778088244199,-0.141141330943,20.8320803394,-3.74209459271,-25.7466447164,heavy,A,9,0,0,1,0,0,0,-0.262028992945,-0.153629866082,0.00296705314413,0.806250186046,33.3296948285,-0.179340405787,0.833815505816,-0.0847518164008,5.14141083352,-3.02419943033,7.85342997485,0.862500994694,32.8874414235,0.0977162092398,0.0442403950525,0.0403741492242,19.4801267683,1.90142200305,31.2431615731,0.0386454564749,11.3497333802,0.0,0.00461565749958,0.000840943989978,4.31250497347,0.0034161766211,0.0384888419616,0.0,0.031810450695,0.128685890049,164.437207117,27.8782979793,-1.81962968487,2
2019-01-11 16:39:05.800,-0.254637134185,0.959520326793,-0.175470286161,-11.2973807062,-8.93145666753,14.3956448158,heavy,A,9,0,0,1,0,0,0,-0.332803385673,-0.183724227777,-0.0271162328519,1.00812159433,20.3626206243,-0.167505617969,0.855277502007,-0.122944077893,9.84473266095,-5.448322488,-6.14378430881,0.883734463387,22.2332673615,0.0720165733375,0.0698051231757,0.0612979707584,14.353605414,2.19315583949,17.7435292755,0.0769711684852,10.6398947843,0.0,-0.00331144794018,0.00801670825227,4.41867231694,0.106316258688,-0.0825797405167,0.0,-0.0975199490454,0.106446879524,111.166336807,-4.47613989475,-15.5398788069,2
2019-01-11 16:39:06.200,-0.171614797248,1.09124355766,-0.0855204627063,-16.470233888,-4.05558553939,17.5205923246,heavy,A,9,0,0,1,0,0,0,-0.368420232339,-0.112689122009,-0.00316947338879,1.10796114116,24.3862160615,-0.208020226179,0.946112340625,-0.143984842751,-4.27554216253,-6.18991862104,4.36297754679,0.981251506946,23.7236730302,0.0415733475163,0.143572927509,0.0376170884728,16.7282664744,2.30617100886,20.1636103325,0.138217898197,9.09655627332,0.0,-0.0323322188184,0.0307425713862,4.90625753473,-0.29706764574,-0.140435656511,0.0,0.0789446219204,0.141425034921,118.618365151,2.98954344237,21.0255110533,2
2019-01-11 16:39:06.600,-0.116563767926,1.02513665618,-0.0211141203309,8.58403276215,-1.20605644312,-10.7527450883,heavy,A,9,0,0,1,0,0,0,-0.339636396719,-0.0682773937871,0.00622946613202,1.03195837218,13.8116515138,-0.178500552728,1.03866057533,-0.0917069743548,-8.67256194729,-4.7289973895,9.80820706886,1.06117084833,19.3363790439,0.0624212368346,0.0520882851531,0.0655830457758,10.9778854869,3.59569659821,13.027241638,0.0465487216195,8.83202561724,0.0,-0.009344702507,0.00306428106496,5.30585424165,-0.071877047218,-0.0607460877744,0.0,-0.00720274167922,0.0616128816785,96.6818952196,7.99062429703,-5.42502034618,2
2019-01-11 16:39:07.000,-0.259978323382,1.03823171445,-0.0901508978602,9.05596321709,5.63477455697,-31.2800649058,heavy,A,9,0,0,1,0,0,0,-0.357653889166,-0.132097883114,-0.0423176797548,1.07407681564,33.0485039693,-0.168320709305,1.05007571436,-0.0561687067112,2.21056196293,-0.110157947765,-9.09537841576,1.06649162622,21.9085240197,0.0578479110225,0.0257544541319,0.0303556629501,12.8414543736,3.60745811034,20.7359376827,0.0292897819521,10.8373114511,0.0,0.00675521924545,0.0019780627365,5.33245813112,0.0604585228321,0.0432152644965,0.0,0.0243106251308,0.0163099995224,109.542620099,1.13391949237,5.06031061202,2
2019-01-11 16:39:07.400,-0.345152365067,0.830453567215,-0.0895766414205,-14.0231036037,9.29313469913,9.99008466687,heavy,A,9,0,0,1,0,0,0,-0.294575242604,-0.152454721017,-0.0935830168603,0.903773897111,19.5655712635,-0.244653573454,0.976403668947,-0.0716382239431,2.89877431284,4.87052082633,-15.1823211655,1.01512064764,23.4971321718,0.0987107837319,0.0950987812716,0.0366752889712,11.8103337612,5.07296163085,16.1645556422,0.0706022368684,8.04067372801,0.0,0.00556784981417,0.00229630144687,5.0756032382,-0.0297896626917,0.0718839740463,0.0,-0.0921101317672,0.116870366167,117.485660859,-14.0622334764,-10.1514681686,2
2019-01-11 16:39:07.800,-0.207289585986,0.902496097983,-0.0191626996352,-5.23387199208,-1.06958451352,37.2089514968,heavy,A,9,0,0,1,0,0,0,-0.30577989552,-0.0861985727863,-0.0431074415196,0.926194033877,37.5904708477,-0.288329833095,0.907084838579,-0.07128628982,-5.70800477253,5.60106723112,6.47338590545,0.956915999324,29.5198760374,0.0556368064392,0.0852209372092,0.0373198966666,9.47817871223,4.48859343019,30.410068275,0.0769023084079,8.82038778656,0.0,0.0181006231541,0.0171570035948,4.78457999662,0.218181725872,0.0747203149258,0.0,0.01962533179,0.0147192972047,147.599380187,5.36388748733,3.45768234232,2
2019-01-11 16:39:08.200,-0.0626686316094,0.85154567709,-0.0746897167927,19.8454369677,-5.52964317048,-14.2523577436,heavy,A,9,0,0,1,0,0,0,-0.277481699663,-0.0965521045628,0.0344536481651,0.857109066195,25.0509086319,-0.204452734739,0.867834278828,-0.0519206893457,-1.01967281795,0.605301785276,16.6032735798,0.900422007299,27.5447089706,0.121126783755,0.0414518488438,0.0297573246667,14.84038076,6.055547728,20.7185649263,0.0294445350169,9.1717104315,0.0,0.00408879527287,0.00355674558726,4.5021100365,-0.0570104277918,0.0653901523223,0.0,-0.0702288938872,0.0682893993324,137.723544853,-6.81065982,-13.1371844478,2
2019-01-11 16:39:08.600,-0.202088640813,0.816949039884,-0.156122692304,4.16565773664,-11.7235372685,-13.5802919892,heavy,A,9,0,0,1,0,0,0,-0.279467658886,-0.168561538814,-0.0133669692636,0.855932151263,18.4178815551,-0.137801928602,0.854895285216,-0.0817832860514,9.35839112026,-6.11146369734,-0.6775053398,0.87352453012,27.1529116676,0.0638987672476,0.0577811648857,0.0602415134976,10.6812332955,4.14266755839,26.8111557338,0.0538438216514,9.23164957765,0.0,0.00706507965972,0.00772537489429,4.3676226506,0.136195968591,-0.00452220919703,0.0,0.0811949912646,0.157187934268,135.764558338,-0.380587876871,26.4744858273,2
2019-01-11 16:39:09.000,-0.174049236552,1.07940398107,-0.0662703797345,-22.8415687618,-9.16485087361,39.2419776159,heavy,A,9,0,0,1,0,0,0,-0.364239023705,-0.102259123578,-0.0099101473391,1.09535284467,46.3213186583,-0.157646425889,0.89601717913,-0.111323584441,1.02562572685,-9.44651733297,0.3276602875,0.919419144954,30.7074393582,0.0709749683491,0.12006397372,0.0389207121872,19.7400453472,2.72477534567,28.0122377933,0.120076318651,10.7745378629,0.0,-0.0147911712036,0.00574842787962,4.59709572477,-0.0487810646037,-0.106994132294,0.0,-0.0743844368135,0.178495241141,153.537196791,13.1928794975,-27.3342063132,2
2019-01-11 16:39:09.400,0.0109680412212,1.08610256025,0.0235304577425,-0.717049201561,-1.66703982831,3.22677549873,heavy,A,9,0,0,1,0,0,0,-0.348686857446,-0.0186639821076,0.0562948134631,1.08641279068,3.70206178579,-0.13315485723,1.01130096428,-0.0672380999287,-9.69048845372,-7.87895883938,15.4982771541,1.03033727109,25.7458696946,0.104365712563,0.127032399106,0.0769339009255,11.1233395449,4.63372912225,21.0127968256,0.110366051394,15.9185644058,0.0,-0.030319865467,0.0283371795201,5.15168635544,-0.300111247927,-0.135901551638,0.0,-0.00209144345941,0.337948965129,128.729348473,-35.7162808107,17.3963104619,2
2019-01-11 16:39:09.800,-0.0139757545004,0.934580739523,0.0514146770617,-4.33186551088,-4.04457060542,-7.06290517638,heavy,A,9,0,0,1,0,0,0,-0.298765864354,-0.0114913628884,0.031157471069,0.936098258421,9.21999130787,-0.0444644010279,1.04649899446,0.00816490670881,-7.89047205057,-4.26437466508,10.5524062017,1.0505751258,20.8251394569,0.0786817701752,0.0753228889309,0.047077665297,10.1521150359,3.01623768954,22.6375137681,0.0771389266098,17.951581093,0.0,0.00869506934127,0.00246865060568,5.25287562902,0.0372986692737,0.0746456278864,0.0,0.120903721466,0.546814359077,104.125697285,46.2983293126,17.4421186908,2
